sample_index,offset_us,timestamp_us,sequence,accel_x_raw,accel_y_raw,accel_z_raw,gyro_x_raw,gyro_y_raw,gyro_z_raw,accel_x_g,accel_y_g,accel_z_g,gyro_x_dps,gyro_y_dps,gyro_z_dps
0,0,300000,0,-3034,-5925,-4982,7,1864,-584,-0.370361328,-0.723266602,-0.608154297,0.427246094,113.769531,-35.6445312
1,5008,305008,1,-3022,-5873,-5039,15,1923,-597,-0.368896484,-0.716918945,-0.615112305,0.915527344,117.370605,-36.4379883
2,10000,310000,2,-3010,-5823,-5078,21,1978,-619,-0.367431641,-0.71081543,-0.619873047,1.28173828,120.727539,-37.7807617
3,15008,315008,3,-2954,-5794,-5120,28,2026,-647,-0.360595703,-0.707275391,-0.625,1.70898438,123.657227,-39.4897461
4,20000,320000,4,-2890,-5810,-5152,32,2071,-670,-0.352783203,-0.709228516,-0.62890625,1.953125,126.403809,-40.8935547
5,25008,325008,5,-2830,-5843,-5200,32,2115,-693,-0.345458984,-0.713256836,-0.634765625,1.953125,129.089355,-42.2973633
6,30000,330000,6,-2773,-5866,-5274,33,2154,-715,-0.338500977,-0.716064453,-0.643798828,2.01416016,131.469727,-43.6401367
7,35008,335008,7,-2751,-5877,-5371,42,2176,-738,-0.33581543,-0.717407227,-0.655639648,2.56347656,132.8125,-45.0439453
8,40000,340000,8,-2719,-5877,-5389,61,2184,-773,-0.33190918,-0.717407227,-0.657836914,3.72314453,133.300781,-47.1801758
9,45008,345008,9,-2624,-5882,-5312,71,2193,-818,-0.3203125,-0.718017578,-0.6484375,4.33349609,133.850098,-49.9267578
10,50000,350000,10,-2473,-5896,-5285,63,2207,-858,-0.301879883,-0.719726562,-0.645141602,3.84521484,134.70459,-52.3681641
11,55008,355008,11,-2296,-5912,-5320,47,2225,-877,-0.280273438,-0.721679688,-0.649414062,2.86865234,135.803223,-53.527832
12,60000,360000,12,-2145,-5912,-5380,26,2243,-880,-0.26184082,-0.721679688,-0.656738281,1.58691406,136.901855,-53.7109375
13,65008,365008,13,-2013,-5926,-5473,6,2261,-882,-0.245727539,-0.723388672,-0.66809082,0.366210938,138.000488,-53.8330078
14,70000,370000,14,-1887,-5943,-5532,-11,2278,-890,-0.23034668,-0.725463867,-0.675292969,-0.671386719,139.038086,-54.3212891
15,75008,375008,15,-1758,-5962,-5574,-29,2300,-905,-0.214599609,-0.727783203,-0.680419922,-1.77001953,140.380859,-55.2368164
16,80000,380000,16,-1611,-6016,-5660,-42,2333,-926,-0.196655273,-0.734375,-0.690917969,-2.56347656,142.39502,-56.5185547
17,85008,385008,17,-1470,-6065,-5731,-48,2364,-937,-0.179443359,-0.740356445,-0.699584961,-2.9296875,144.287109,-57.1899414
18,90000,390000,18,-1383,-6063,-5800,-52,2400,-935,-0.168823242,-0.740112305,-0.708007812,-3.17382812,146.484375,-57.0678711
19,95008,395008,19,-1362,-6045,-5904,-51,2448,-942,-0.166259766,-0.737915039,-0.720703125,-3.11279297,149.414062,-57.4951172
20,100000,400000,20,-1360,-6053,-5978,-40,2498,-955,-0.166015625,-0.738891602,-0.729736328,-2.44140625,152.46582,-58.2885742
21,105008,405008,21,-1363,-6085,-5942,-23,2536,-972,-0.166381836,-0.742797852,-0.725341797,-1.40380859,154.785156,-59.3261719
22,110000,410000,22,-1333,-6114,-5903,-21,2549,-988,-0.162719727,-0.746337891,-0.720581055,-1.28173828,155.578613,-60.3027344
23,115008,415008,23,-1276,-6084,-5964,-17,2543,-995,-0.155761719,-0.742675781,-0.728027344,-1.03759766,155.212402,-60.7299805
24,120000,420000,24,-1206,-6010,-5979,1,2537,-1008,-0.147216797,-0.733642578,-0.729858398,0.0610351562,154.846191,-61.5234375
25,125008,425008,25,-1099,-5935,-5910,16,2521,-1026,-0.134155273,-0.724487305,-0.721435547,0.9765625,153.869629,-62.6220703
26,130000,430000,26,-991,-5892,-5833,23,2482,-1040,-0.12097168,-0.719238281,-0.712036133,1.40380859,151.489258,-63.4765625
27,135008,435008,27,-816,-5876,-5635,23,2418,-1047,-0.099609375,-0.717285156,-0.687866211,1.40380859,147.583008,-63.9038086
28,140000,440000,28,-572,-5888,-5440,-1,2349,-1046,-0.0698242188,-0.71875,-0.6640625,-0.0610351562,143.371582,-63.8427734
29,145008,445008,29,-320,-5934,-5439,-45,2281,-1043,-0.0390625,-0.724365234,-0.66394043,-2.74658203,139.221191,-63.659668
30,150000,450000,30,-23,-5991,-5556,-86,2225,-1036,-0.00280761719,-0.731323242,-0.678222656,-5.24902344,135.803223,-63.2324219
31,155008,455008,31,275,-6031,-5732,-108,2191,-1022,0.0335693359,-0.736206055,-0.699707031,-6.59179688,133.728027,-62.3779297
32,160000,460000,32,510,-6018,-5858,-118,2164,-998,0.0622558594,-0.734619141,-0.715087891,-7.20214844,132.080078,-60.9130859
33,165008,465008,33,667,-5966,-5939,-126,2141,-973,0.0814208984,-0.728271484,-0.724975586,-7.69042969,130.67627,-59.387207
34,170000,470000,34,810,-5926,-6019,-129,2126,-957,0.0988769531,-0.723388672,-0.734741211,-7.87353516,129.760742,-58.4106445
35,175008,475008,35,934,-5924,-6074,-116,2136,-944,0.114013672,-0.723144531,-0.741455078,-7.08007812,130.371094,-57.6171875
36,180000,480000,36,975,-5974,-6178,-88,2166,-927,0.119018555,-0.729248047,-0.754150391,-5.37109375,132.202148,-56.5795898
37,185008,485008,37,922,-6039,-6258,-50,2198,-914,0.112548828,-0.737182617,-0.763916016,-3.05175781,134.155273,-55.7861328
38,190000,490000,38,873,-6107,-6296,-18,2211,-903,0.106567383,-0.745483398,-0.768554688,-1.09863281,134.94873,-55.1147461
39,195008,495008,39,810,-6192,-6355,6,2207,-883,0.0988769531,-0.755859375,-0.775756836,0.366210938,134.70459,-53.894043
40,200000,500000,40,711,-6292,-6307,47,2196,-862,0.0867919922,-0.768066406,-0.769897461,2.86865234,134.033203,-52.6123047
41,205008,505008,41,661,-6392,-6138,97,2175,-844,0.0806884766,-0.780273438,-0.749267578,5.92041016,132.751465,-51.5136719
42,210000,510000,42,619,-6471,-5968,160,2152,-834,0.0755615234,-0.789916992,-0.728515625,9.765625,131.347656,-50.9033203
43,215008,515008,43,642,-6488,-5804,224,2124,-836,0.0783691406,-0.791992188,-0.708496094,13.671875,129.638672,-51.0253906
44,220000,520000,44,698,-6430,-5700,255,2074,-845,0.0852050781,-0.784912109,-0.695800781,15.5639648,126.586914,-51.574707
45,225008,525008,45,750,-6366,-5719,271,2006,-867,0.0915527344,-0.777099609,-0.698120117,16.5405273,122.436523,-52.9174805
46,230000,530000,46,883,-6305,-5721,294,1939,-896,0.107788086,-0.76965332,-0.698364258,17.9443359,118.347168,-54.6875
47,235008,535008,47,1038,-6156,-5541,300,1872,-924,0.126708984,-0.751464844,-0.676391602,18.3105469,114.257812,-56.3964844
48,240000,540000,48,1192,-5938,-5339,261,1809,-956,0.145507812,-0.724853516,-0.651733398,15.9301758,110.412598,-58.3496094
49,245008,545008,49,1413,-5715,-5260,198,1766,-992,0.172485352,-0.697631836,-0.642089844,12.0849609,107.788086,-60.546875
50,250000,550000,50,1637,-5560,-5255,127,1734,-1023,0.199829102,-0.678710938,-0.641479492,7.75146484,105.834961,-62.4389648
51,255008,555008,51,1774,-5508,-5214,56,1678,-1028,0.216552734,-0.672363281,-0.636474609,3.41796875,102.416992,-62.7441406
52,260000,560000,52,1889,-5499,-5146,0,1604,-998,0.23059082,-0.671264648,-0.628173828,0,97.9003906,-60.9130859
53,265008,565008,53,2006,-5544,-5173,-47,1539,-953,0.244873047,-0.676757812,-0.631469727,-2.86865234,93.9331055,-58.1665039
54,270000,570000,54,2138,-5630,-5274,-83,1472,-907,0.260986328,-0.687255859,-0.643798828,-5.06591797,89.84375,-55.3588867
55,275008,575008,55,2347,-5753,-5381,-91,1412,-865,0.286499023,-0.702270508,-0.656860352,-5.55419922,86.1816406,-52.7954102
56,280000,580000,56,2596,-5907,-5448,-71,1360,-819,0.316894531,-0.721069336,-0.665039062,-4.33349609,83.0078125,-49.987793
57,285008,585008,57,2817,-6082,-5478,-34,1317,-770,0.34387207,-0.742431641,-0.668701172,-2.07519531,80.3833008,-46.9970703
58,290000,590000,58,2996,-6193,-5441,36,1301,-721,0.365722656,-0.755981445,-0.66418457,2.19726562,79.4067383,-44.0063477
59,295008,595008,59,3128,-6208,-5394,121,1313,-678,0.381835938,-0.7578125,-0.658447266,7.38525391,80.1391602,-41.3818359
60,300000,600000,60,3209,-6170,-5395,219,1344,-652,0.391723633,-0.753173828,-0.658569336,13.3666992,82.03125,-39.7949219
61,305008,605008,61,3284,-6063,-5317,337,1362,-656,0.400878906,-0.740112305,-0.649047852,20.5688477,83.1298828,-40.0390625
62,310000,610000,62,3388,-5941,-5117,420,1334,-664,0.413574219,-0.725219727,-0.624633789,25.6347656,81.4208984,-40.5273438
63,315008,615008,63,3363,-5755,-4851,444,1273,-645,0.410522461,-0.702514648,-0.592163086,27.0996094,77.6977539,-39.3676758
64,320000,620000,64,3299,-5558,-4658,406,1210,-641,0.402709961,-0.678466797,-0.568603516,24.7802734,73.8525391,-39.1235352
65,325008,625008,65,3378,-5428,-4596,332,1154,-665,0.412353516,-0.662597656,-0.561035156,20.2636719,70.4345703,-40.5883789
66,330000,630000,66,3498,-5354,-4604,277,1110,-680,0.427001953,-0.653564453,-0.562011719,16.9067383,67.7490234,-41.5039062
67,335008,635008,67,3549,-5344,-4598,245,1074,-673,0.433227539,-0.65234375,-0.561279297,14.9536133,65.5517578,-41.0766602
68,340000,640000,68,3533,-5371,-4514,217,1046,-658,0.431274414,-0.655639648,-0.551025391,13.2446289,63.8427734,-40.1611328
69,345008,645008,69,3562,-5484,-4447,177,1022,-647,0.434814453,-0.669433594,-0.54284668,10.8032227,62.3779297,-39.4897461
70,350000,650000,70,3621,-5656,-4462,131,991,-639,0.442016602,-0.690429688,-0.544677734,7.99560547,60.4858398,-39.0014648
71,355008,655008,71,3668,-5850,-4571,102,949,-624,0.447753906,-0.714111328,-0.557983398,6.22558594,57.9223633,-38.0859375
72,360000,660000,72,3670,-6024,-4757,117,914,-592,0.447998047,-0.735351562,-0.580688477,7.14111328,55.7861328,-36.1328125
73,365008,665008,73,3599,-6132,-4840,150,891,-567,0.439331055,-0.748535156,-0.590820312,9.15527344,54.3823242,-34.6069336
74,370000,670000,74,3537,-6171,-4856,157,859,-552,0.431762695,-0.753295898,-0.592773438,9.58251953,52.4291992,-33.6914062
75,375008,675008,75,3531,-6155,-4948,151,830,-539,0.431030273,-0.751342773,-0.604003906,9.21630859,50.6591797,-32.8979492
76,380000,680000,76,3567,-6125,-4994,144,824,-534,0.435424805,-0.747680664,-0.609619141,8.7890625,50.2929688,-32.5927734
77,385008,685008,77,3623,-6099,-4966,137,837,-536,0.442260742,-0.744506836,-0.606201172,8.36181641,51.0864258,-32.7148438
78,390000,690000,78,3755,-6104,-4795,122,852,-533,0.458374023,-0.745117188,-0.585327148,7.44628906,52.0019531,-32.5317383
79,395008,695008,79,3914,-6142,-4516,95,886,-521,0.477783203,-0.749755859,-0.551269531,5.79833984,54.0771484,-31.7993164
80,400000,700000,80,3978,-6131,-4265,80,964,-511,0.485595703,-0.748413086,-0.520629883,4.8828125,58.8378906,-31.1889648
81,405008,705008,81,4012,-6078,-4044,82,1044,-519,0.489746094,-0.741943359,-0.493652344,5.00488281,63.7207031,-31.6772461
82,410000,710000,82,4027,-5996,-3922,86,1082,-527,0.491577148,-0.731933594,-0.478759766,5.24902344,66.0400391,-32.1655273
83,415008,715008,83,3943,-5825,-3871,100,1073,-541,0.481323242,-0.71105957,-0.47253418,6.10351562,65.4907227,-33.0200195
84,420000,720000,84,3851,-5635,-3814,111,1030,-570,0.470092773,-0.687866211,-0.465576172,6.77490234,62.8662109,-34.7900391
85,425008,725008,85,3777,-5428,-3829,95,962,-591,0.46105957,-0.662597656,-0.467407227,5.79833984,58.7158203,-36.0717773
86,430000,730000,86,3725,-5185,-3959,53,871,-599,0.454711914,-0.63293457,-0.483276367,3.23486328,53.1616211,-36.5600586
87,435008,735008,87,3746,-5015,-4097,1,776,-602,0.457275391,-0.612182617,-0.50012207,0.0610351562,47.3632812,-36.7431641
88,440000,740000,88,3811,-4938,-4186,-46,693,-591,0.465209961,-0.602783203,-0.510986328,-2.80761719,42.2973633,-36.0717773
89,445008,745008,89,3876,-4929,-4245,-93,626,-572,0.473144531,-0.60168457,-0.518188477,-5.67626953,38.2080078,-34.9121094
90,450000,750000,90,3996,-5027,-4338,-140,578,-552,0.487792969,-0.613647461,-0.529541016,-8.54492188,35.2783203,-33.6914062
91,455008,755008,91,4170,-5221,-4507,-181,552,-517,0.509033203,-0.637329102,-0.550170898,-11.0473633,33.6914062,-31.5551758
92,460000,760000,92,4189,-5444,-4661,-185,529,-467,0.511352539,-0.664550781,-0.568969727,-11.2915039,32.2875977,-28.503418
93,465008,765008,93,4132,-5679,-4741,-158,517,-421,0.504394531,-0.693237305,-0.578735352,-9.64355469,31.5551758,-25.6958008
94,470000,770000,94,4144,-5941,-4773,-140,524,-385,0.505859375,-0.725219727,-0.582641602,-8.54492188,31.9824219,-23.4985352
95,475008,775008,95,4175,-6176,-4806,-123,542,-360,0.509643555,-0.75390625,-0.586669922,-7.50732422,33.0810547,-21.9726562
96,480000,780000,96,4135,-6339,-4864,-89,577,-351,0.504760742,-0.773803711,-0.59375,-5.43212891,35.2172852,-21.4233398
97,485008,785008,97,4095,-6464,-4879,-44,611,-359,0.49987793,-0.7890625,-0.595581055,-2.68554688,37.2924805,-21.9116211
98,490000,790000,98,4088,-6482,-4841,2,640,-369,0.499023438,-0.791259766,-0.590942383,0.122070312,39.0625,-22.5219727
99,495008,795008,99,4047,-6379,-4822,44,670,-377,0.494018555,-0.778686523,-0.588623047,2.68554688,40.8935547,-23.0102539
100,500000,800000,100,3990,-6216,-4775,74,682,-390,0.487060547,-0.758789062,-0.582885742,4.51660156,41.6259766,-23.8037109
101,505008,805008,101,3911,-5994,-4670,88,672,-401,0.477416992,-0.731689453,-0.570068359,5.37109375,41.015625,-24.4750977
102,510000,810000,102,3875,-5755,-4535,85,644,-405,0.473022461,-0.702514648,-0.553588867,5.18798828,39.3066406,-24.7192383
103,515008,815008,103,3884,-5543,-4397,67,607,-399,0.474121094,-0.676635742,-0.536743164,4.08935547,37.0483398,-24.3530273
104,520000,820000,104,3897,-5350,-4287,23,560,-382,0.475708008,-0.653076172,-0.52331543,1.40380859,34.1796875,-23.3154297
105,525008,825008,105,3984,-5233,-4286,-34,504,-368,0.486328125,-0.638793945,-0.523193359,-2.07519531,30.7617188,-22.4609375
106,530000,830000,106,4116,-5214,-4335,-73,459,-365,0.502441406,-0.636474609,-0.529174805,-4.45556641,28.0151367,-22.277832
107,535008,835008,107,4166,-5211,-4323,-115,433,-370,0.508544922,-0.636108398,-0.527709961,-7.01904297,26.4282227,-22.5830078
108,540000,840000,108,4226,-5221,-4376,-171,410,-375,0.515869141,-0.637329102,-0.534179688,-10.4370117,25.0244141,-22.8881836
109,545008,845008,109,4344,-5248,-4468,-203,393,-361,0.530273438,-0.640625,-0.545410156,-12.3901367,23.9868164,-22.0336914
110,550000,850000,110,4438,-5265,-4464,-217,390,-340,0.541748047,-0.642700195,-0.544921875,-13.2446289,23.8037109,-20.7519531
111,555008,855008,111,4525,-5284,-4407,-229,406,-318,0.552368164,-0.645019531,-0.537963867,-13.9770508,24.7802734,-19.4091797
112,560000,860000,112,4642,-5337,-4337,-239,432,-301,0.566650391,-0.651489258,-0.529418945,-14.5874023,26.3671875,-18.371582
113,565008,865008,113,4784,-5408,-4275,-245,467,-292,0.583984375,-0.66015625,-0.521850586,-14.9536133,28.503418,-17.8222656
114,570000,870000,114,4913,-5458,-4231,-226,509,-282,0.599731445,-0.666259766,-0.516479492,-13.7939453,31.0668945,-17.2119141
115,575008,875008,115,4979,-5474,-4128,-185,542,-279,0.607788086,-0.668212891,-0.50390625,-11.2915039,33.0810547,-17.0288086
116,580000,880000,116,4965,-5451,-3978,-147,576,-284,0.606079102,-0.665405273,-0.485595703,-8.97216797,35.15625,-17.3339844
117,585008,885008,117,4928,-5382,-3886,-120,608,-295,0.6015625,-0.656982422,-0.474365234,-7.32421875,37.109375,-18.0053711
118,590000,890000,118,4892,-5290,-3844,-106,620,-303,0.597167969,-0.645751953,-0.469238281,-6.46972656,37.8417969,-18.4936523
119,595008,895008,119,4798,-5222,-3816,-108,619,-310,0.585693359,-0.637451172,-0.465820312,-6.59179688,37.7807617,-18.9208984
120,600000,900000,120,4646,-5176,-3829,-122,608,-322,0.567138672,-0.631835938,-0.467407227,-7.44628906,37.109375,-19.6533203
121,605008,905008,121,4536,-5130,-3921,-136,578,-334,0.553710938,-0.626220703,-0.478637695,-8.30078125,35.2783203,-20.3857422
122,610000,910000,122,4521,-5069,-3943,-148,536,-343,0.551879883,-0.618774414,-0.481323242,-9.03320312,32.7148438,-20.9350586
123,615008,915008,123,4588,-5006,-3876,-176,500,-352,0.560058594,-0.611083984,-0.473144531,-10.7421875,30.5175781,-21.484375
124,620000,920000,124,4719,-4987,-3857,-222,476,-360,0.576049805,-0.608764648,-0.470825195,-13.5498047,29.0527344,-21.9726562
125,625008,925008,125,4833,-4988,-3863,-252,468,-357,0.58996582,-0.608886719,-0.471557617,-15.3808594,28.5644531,-21.7895508
126,630000,930000,126,4910,-5004,-3839,-252,481,-347,0.599365234,-0.610839844,-0.46862793,-15.3808594,29.3579102,-21.1791992
127,635008,935008,127,4989,-5032,-3735,-231,504,-330,0.609008789,-0.614257812,-0.455932617,-14.0991211,30.7617188,-20.1416016
128,640000,940000,128,5008,-5037,-3603,-206,535,-307,0.611328125,-0.614868164,-0.439819336,-12.5732422,32.6538086,-18.737793
129,645008,945008,129,4961,-5050,-3526,-184,563,-290,0.60559082,-0.616455078,-0.430419922,-11.2304688,34.362793,-17.7001953
130,650000,950000,130,4908,-5047,-3436,-162,571,-282,0.599121094,-0.616088867,-0.419433594,-9.88769531,34.8510742,-17.2119141
131,655008,955008,131,4878,-4995,-3316,-137,564,-274,0.595458984,-0.609741211,-0.404785156,-8.36181641,34.4238281,-16.7236328
132,660000,960000,132,4846,-4913,-3205,-120,548,-261,0.591552734,-0.599731445,-0.391235352,-7.32421875,33.4472656,-15.9301758
133,665008,965008,133,4825,-4803,-3131,-110,517,-248,0.588989258,-0.586303711,-0.382202148,-6.71386719,31.5551758,-15.1367188
134,670000,970000,134,4825,-4689,-3094,-104,479,-232,0.588989258,-0.572387695,-0.377685547,-6.34765625,29.2358398,-14.1601562
135,675008,975008,135,4832,-4622,-3081,-97,452,-215,0.58984375,-0.564208984,-0.376098633,-5.92041016,27.5878906,-13.1225586
136,680000,980000,136,4852,-4629,-3066,-92,425,-200,0.592285156,-0.565063477,-0.374267578,-5.61523438,25.9399414,-12.2070312
137,685008,985008,137,4886,-4685,-3010,-100,386,-183,0.596435547,-0.571899414,-0.367431641,-6.10351562,23.5595703,-11.1694336
138,690000,990000,138,4910,-4755,-2976,-117,353,-167,0.599365234,-0.580444336,-0.36328125,-7.14111328,21.5454102,-10.1928711
139,695008,995008,139,4926,-4828,-3003,-129,331,-158,0.601318359,-0.589355469,-0.366577148,-7.87353516,20.2026367,-9.64355469
140,700000,1000000,140,4915,-4898,-3030,-136,313,-150,0.599975586,-0.597900391,-0.369873047,-8.30078125,19.1040039,-9.15527344
141,705008,1005008,141,4916,-4991,-3063,-139,293,-143,0.600097656,-0.60925293,-0.373901367,-8.48388672,17.8833008,-8.72802734
142,710000,1010000,142,4945,-5079,-3102,-134,267,-133,0.603637695,-0.619995117,-0.378662109,-8.17871094,16.2963867,-8.11767578
143,715008,1015008,143,4931,-5130,-3098,-118,242,-123,0.601928711,-0.626220703,-0.378173828,-7.20214844,14.7705078,-7.50732422
144,720000,1020000,144,4910,-5150,-3076,-99,223,-114,0.599365234,-0.628662109,-0.375488281,-6.04248047,13.6108398,-6.95800781
145,725008,1025008,145,4913,-5141,-3069,-80,205,-105,0.599731445,-0.627563477,-0.374633789,-4.8828125,12.512207,-6.40869141
146,730000,1030000,146,4945,-5095,-3038,-58,188,-97,0.603637695,-0.621948242,-0.370849609,-3.54003906,11.4746094,-5.92041016
147,735008,1035008,147,4970,-5020,-2985,-40,172,-87,0.606689453,-0.612792969,-0.364379883,-2.44140625,10.4980469,-5.31005859
148,740000,1040000,148,4984,-4967,-2955,-29,150,-73,0.608398438,-0.606323242,-0.360717773,-1.77001953,9.15527344,-4.45556641
149,745008,1045008,149,4991,-4933,-2937,-21,125,-58,0.60925293,-0.602172852,-0.358520508,-1.28173828,7.62939453,-3.54003906
150,750000,1050000,150,4991,-4913,-2907,-16,99,-41,0.60925293,-0.599731445,-0.354858398,-0.9765625,6.04248047,-2.50244141
151,755008,1055008,151,5003,-4919,-2893,-17,75,-21,0.610717773,-0.600463867,-0.353149414,-1.03759766,4.57763672,-1.28173828
152,760000,1060000,152,5026,-4948,-2892,-16,55,-1,0.613525391,-0.604003906,-0.353027344,-0.9765625,3.35693359,-0.0610351562
153,765008,1065008,153,5047,-4983,-2881,-12,33,19,0.616088867,-0.608276367,-0.35168457,-0.732421875,2.01416016,1.15966797
154,770000,1070000,154,5048,-5000,-2861,-8,12,38,0.616210938,-0.610351562,-0.349243164,-0.48828125,0.732421875,2.31933594
155,775008,1075008,155,5044,-4999,-2833,-6,-7,58,0.615722656,-0.610229492,-0.345825195,-0.366210938,-0.427246094,3.54003906
156,780000,1080000,156,5055,-4988,-2792,-7,-26,77,0.61706543,-0.608886719,-0.340820312,-0.427246094,-1.58691406,4.69970703
157,785008,1085008,157,5077,-4953,-2713,-9,-42,95,0.619750977,-0.604614258,-0.331176758,-0.549316406,-2.56347656,5.79833984
158,790000,1090000,158,5116,-4905,-2602,-11,-58,110,0.624511719,-0.598754883,-0.317626953,-0.671386719,-3.54003906,6.71386719
159,795008,1095008,159,5144,-4844,-2486,-13,-74,122,0.627929688,-0.591308594,-0.303466797,-0.793457031,-4.51660156,7.44628906
160,800000,1100000,160,5140,-4774,-2388,-16,-94,133,0.627441406,-0.582763672,-0.291503906,-0.9765625,-5.73730469,8.11767578
161,805008,1105008,161,5107,-4700,-2303,-23,-127,145,0.623413086,-0.573730469,-0.28112793,-1.40380859,-7.75146484,8.85009766
162,810000,1110000,162,5027,-4611,-2243,-31,-173,159,0.613647461,-0.562866211,-0.273803711,-1.89208984,-10.559082,9.70458984
163,815008,1115008,163,4946,-4511,-2222,-43,-230,174,0.603759766,-0.55065918,-0.271240234,-2.62451172,-14.0380859,10.6201172
164,820000,1120000,164,4920,-4398,-2204,-61,-293,190,0.600585938,-0.536865234,-0.269042969,-3.72314453,-17.8833008,11.5966797
165,825008,1125008,165,4933,-4280,-2176,-93,-351,214,0.602172852,-0.522460938,-0.265625,-5.67626953,-21.4233398,13.0615234
166,830000,1130000,166,4937,-4191,-2175,-135,-402,245,0.602661133,-0.51159668,-0.26550293,-8.23974609,-24.5361328,14.9536133
167,835008,1135008,167,4956,-4165,-2221,-172,-448,279,0.604980469,-0.508422852,-0.271118164,-10.4980469,-27.34375,17.0288086
168,840000,1140000,168,4985,-4184,-2261,-194,-488,316,0.608520508,-0.510742188,-0.276000977,-11.8408203,-29.7851562,19.2871094
169,845008,1145008,169,4999,-4233,-2250,-203,-525,361,0.610229492,-0.516723633,-0.274658203,-12.3901367,-32.043457,22.0336914
170,850000,1150000,170,4979,-4313,-2213,-210,-564,410,0.607788086,-0.526489258,-0.270141602,-12.8173828,-34.4238281,25.0244141
171,855008,1155008,171,4927,-4417,-2208,-211,-607,459,0.60144043,-0.53918457,-0.26953125,-12.878418,-37.0483398,28.0151367
172,860000,1160000,172,4897,-4550,-2250,-190,-663,510,0.59777832,-0.555419922,-0.274658203,-11.5966797,-40.4663086,31.1279297
173,865008,1165008,173,4872,-4699,-2295,-144,-733,561,0.594726562,-0.573608398,-0.280151367,-8.7890625,-44.7387695,34.2407227
174,870000,1170000,174,4864,-4858,-2337,-90,-814,610,0.59375,-0.593017578,-0.28527832,-5.49316406,-49.6826172,37.2314453
175,875008,1175008,175,4900,-5029,-2406,-38,-897,659,0.598144531,-0.613891602,-0.293701172,-2.31933594,-54.7485352,40.222168
176,880000,1180000,176,4949,-5208,-2529,9,-982,711,0.604125977,-0.635742188,-0.30871582,0.549316406,-59.9365234,43.3959961
177,885008,1185008,177,4988,-5410,-2729,58,-1070,754,0.608886719,-0.660400391,-0.333129883,3.54003906,-65.3076172,46.0205078
178,890000,1190000,178,5003,-5619,-3043,129,-1159,786,0.610717773,-0.685913086,-0.371459961,7.87353516,-70.7397461,47.9736328
179,895008,1195008,179,5004,-5777,-3428,221,-1256,815,0.610839844,-0.705200195,-0.418457031,13.4887695,-76.6601562,49.7436523
180,900000,1200000,180,4966,-5871,-3809,310,-1364,836,0.606201172,-0.716674805,-0.46496582,18.9208984,-83.2519531,51.0253906
181,905008,1205008,181,4934,-5916,-4163,373,-1471,847,0.602294922,-0.722167969,-0.508178711,22.7661133,-89.7827148,51.6967773
182,910000,1210000,182,4965,-5906,-4480,397,-1545,858,0.606079102,-0.720947266,-0.546875,24.230957,-94.2993164,52.3681641
183,915008,1215008,183,4975,-5812,-4730,389,-1551,872,0.607299805,-0.709472656,-0.577392578,23.7426758,-94.6655273,53.2226562
184,920000,1220000,184,4985,-5712,-4904,351,-1505,877,0.608520508,-0.697265625,-0.598632812,21.4233398,-91.8579102,53.527832
185,925008,1225008,185,5048,-5637,-4953,291,-1438,860,0.616210938,-0.688110352,-0.604614258,17.7612305,-87.7685547,52.4902344
186,930000,1230000,186,5121,-5550,-4908,230,-1352,846,0.62512207,-0.677490234,-0.599121094,14.0380859,-82.5195312,51.6357422
187,935008,1235008,187,5023,-5437,-4899,174,-1268,847,0.61315918,-0.663696289,-0.598022461,10.6201172,-77.3925781,51.6967773
188,940000,1240000,188,4803,-5359,-4884,112,-1216,853,0.586303711,-0.654174805,-0.596191406,6.8359375,-74.21875,52.0629883
189,945008,1245008,189,4689,-5442,-4853,28,-1186,858,0.572387695,-0.664306641,-0.592407227,1.70898438,-72.3876953,52.3681641
190,950000,1250000,190,4589,-5599,-4874,-69,-1158,878,0.560180664,-0.68347168,-0.594970703,-4.21142578,-70.6787109,53.5888672
191,955008,1255008,191,4458,-5765,-4920,-145,-1130,906,0.544189453,-0.703735352,-0.600585938,-8.85009766,-68.9697266,55.2978516
192,960000,1260000,192,4338,-5936,-4915,-177,-1129,926,0.529541016,-0.724609375,-0.599975586,-10.8032227,-68.9086914,56.5185547
193,965008,1265008,193,4273,-6109,-4757,-185,-1184,948,0.521606445,-0.745727539,-0.580688477,-11.2915039,-72.265625,57.8613281
194,970000,1270000,194,4215,-6250,-4524,-197,-1267,975,0.514526367,-0.762939453,-0.552246094,-12.0239258,-77.331543,59.5092773
195,975008,1275008,195,4187,-6377,-4463,-200,-1343,994,0.511108398,-0.778442383,-0.544799805,-12.2070312,-81.9702148,60.6689453
196,980000,1280000,196,4207,-6516,-4602,-178,-1424,1009,0.513549805,-0.795410156,-0.561767578,-10.8642578,-86.9140625,61.5844727
197,985008,1285008,197,4161,-6613,-4723,-132,-1495,1018,0.50793457,-0.807250977,-0.576538086,-8.05664062,-91.2475586,62.1337891
198,990000,1290000,198,4090,-6676,-4819,-75,-1535,1018,0.499267578,-0.814941406,-0.588256836,-4.57763672,-93.6889648,62.1337891
199,995008,1295008,199,3987,-6725,-5029,-21,-1574,1013,0.486694336,-0.820922852,-0.613891602,-1.28173828,-96.0693359,61.8286133
200,1000000,1300000,200,3837,-6750,-5286,27,-1619,994,0.468383789,-0.823974609,-0.645263672,1.64794922,-98.815918,60.6689453
201,1005008,1305008,201,3705,-6706,-5508,73,-1653,966,0.452270508,-0.818603516,-0.672363281,4.45556641,-100.891113,58.9599609
202,1010000,1310000,202,3589,-6584,-5564,111,-1674,939,0.438110352,-0.803710938,-0.679199219,6.77490234,-102.172852,57.3120117
203,1015008,1315008,203,3449,-6411,-5527,127,-1688,917,0.421020508,-0.782592773,-0.674682617,7.75146484,-103.027344,55.9692383
204,1020000,1320000,204,3267,-6235,-5646,118,-1730,898,0.398803711,-0.761108398,-0.689208984,7.20214844,-105.59082,54.8095703
205,1025008,1325008,205,3077,-6075,-5938,113,-1804,890,0.375610352,-0.741577148,-0.724853516,6.89697266,-110.107422,54.3212891
206,1030000,1330000,206,2929,-5864,-6196,123,-1866,889,0.357543945,-0.715820312,-0.756347656,7.50732422,-113.891602,54.2602539
207,1035008,1335008,207,2755,-5618,-6255,128,-1898,890,0.336303711,-0.685791016,-0.763549805,7.8125,-115.844727,54.3212891
208,1040000,1340000,208,2540,-5442,-6180,93,-1913,893,0.310058594,-0.664306641,-0.754394531,5.67626953,-116.760254,54.5043945
209,1045008,1345008,209,2375,-5390,-6144,17,-1904,903,0.289916992,-0.657958984,-0.75,1.03759766,-116.210938,55.1147461
210,1050000,1350000,210,2169,-5378,-6202,-73,-1887,931,0.264770508,-0.656494141,-0.757080078,-4.45556641,-115.17334,56.8237305
211,1055008,1355008,211,1847,-5353,-6279,-161,-1902,958,0.225463867,-0.653442383,-0.766479492,-9.82666016,-116.088867,58.4716797
212,1060000,1360000,212,1551,-5378,-6339,-212,-1949,966,0.189331055,-0.656494141,-0.773803711,-12.9394531,-118.95752,58.9599609
213,1065008,1365008,213,1373,-5459,-6364,-226,-2004,974,0.167602539,-0.666381836,-0.776855469,-13.7939453,-122.314453,59.4482422
214,1070000,1370000,214,1256,-5554,-6348,-230,-2041,993,0.153320312,-0.677978516,-0.774902344,-14.0380859,-124.572754,60.6079102
215,1075008,1375008,215,1136,-5646,-6370,-233,-2062,1017,0.138671875,-0.689208984,-0.777587891,-14.2211914,-125.854492,62.0727539
216,1080000,1380000,216,1029,-5736,-6421,-229,-2086,1035,0.125610352,-0.700195312,-0.783813477,-13.9770508,-127.319336,63.1713867
217,1085008,1385008,217,923,-5807,-6325,-215,-2115,1045,0.112670898,-0.708862305,-0.772094727,-13.1225586,-129.089355,63.7817383
218,1090000,1390000,218,834,-5843,-6193,-192,-2138,1047,0.101806641,-0.713256836,-0.755981445,-11.71875,-130.493164,63.9038086
219,1095008,1395008,219,778,-5857,-6241,-123,-2206,1051,0.0949707031,-0.71496582,-0.76184082,-7.50732422,-134.643555,64.1479492
220,1100000,1400000,220,720,-5862,-6171,-14,-2319,1071,0.087890625,-0.715576172,-0.753295898,-0.854492188,-141.540527,65.3686523
221,1105008,1405008,221,639,-5865,-5881,40,-2397,1103,0.0780029297,-0.715942383,-0.717895508,2.44140625,-146.30127,67.3217773
222,1110000,1410000,222,504,-5907,-5666,12,-2433,1131,0.0615234375,-0.721069336,-0.691650391,0.732421875,-148.498535,69.0307617
223,1115008,1415008,223,372,-5972,-5670,-34,-2466,1148,0.0454101562,-0.729003906,-0.692138672,-2.07519531,-150.512695,70.0683594
224,1120000,1420000,224,301,-6051,-5844,-53,-2500,1162,0.0367431641,-0.738647461,-0.713378906,-3.23486328,-152.587891,70.9228516
225,1125008,1425008,225,232,-6133,-6009,-46,-2523,1186,0.0283203125,-0.748657227,-0.733520508,-2.80761719,-153.991699,72.3876953
226,1130000,1430000,226,114,-6216,-6098,-35,-2528,1208,0.0139160156,-0.758789062,-0.744384766,-2.13623047,-154.296875,73.7304688
227,1135008,1435008,227,-41,-6254,-6122,-44,-2537,1230,-0.00500488281,-0.763427734,-0.747314453,-2.68554688,-154.846191,75.0732422
228,1140000,1440000,228,-189,-6291,-6129,-77,-2565,1258,-0.0230712891,-0.767944336,-0.748168945,-4.69970703,-156.555176,76.7822266
229,1145008,1445008,229,-314,-6360,-6201,-120,-2592,1290,-0.0383300781,-0.776367188,-0.756958008,-7.32421875,-158.203125,78.7353516
230,1150000,1450000,230,-434,-6413,-6333,-148,-2577,1321,-0.0529785156,-0.782836914,-0.773071289,-9.03320312,-157.287598,80.6274414
231,1155008,1455008,231,-593,-6505,-6449,-134,-2536,1334,-0.0723876953,-0.794067383,-0.787231445,-8.17871094,-154.785156,81.4208984
232,1160000,1460000,232,-696,-6621,-6458,-104,-2493,1343,-0.0849609375,-0.808227539,-0.788330078,-6.34765625,-152.160645,81.9702148
233,1165008,1465008,233,-814,-6634,-6435,-85,-2442,1381,-0.0993652344,-0.809814453,-0.785522461,-5.18798828,-149.047852,84.2895508
234,1170000,1470000,234,-1055,-6572,-6463,-52,-2397,1411,-0.12878418,-0.802246094,-0.78894043,-3.17382812,-146.30127,86.1206055
235,1175008,1475008,235,-1251,-6556,-6441,-1,-2346,1414,-0.152709961,-0.800292969,-0.786254883,-0.0610351562,-143.188477,86.3037109
236,1180000,1480000,236,-1387,-6557,-6447,51,-2306,1423,-0.169311523,-0.800415039,-0.786987305,3.11279297,-140.74707,86.8530273
237,1185008,1485008,237,-1523,-6481,-6347,98,-2289,1439,-0.185913086,-0.791137695,-0.774780273,5.98144531,-139.709473,87.8295898
238,1190000,1490000,238,-1616,-6337,-6137,116,-2268,1448,-0.197265625,-0.77355957,-0.749145508,7.08007812,-138.427734,88.3789062
239,1195008,1495008,239,-1746,-6258,-6119,134,-2235,1440,-0.213134766,-0.763916016,-0.746948242,8.17871094,-136.413574,87.890625
240,1200000,1500000,240,-1891,-6219,-6100,171,-2210,1416,-0.230834961,-0.759155273,-0.744628906,10.4370117,-134.887695,86.4257812
241,1205008,1505008,241,-1933,-6120,-5957,187,-2209,1381,-0.235961914,-0.747070312,-0.727172852,11.4135742,-134.82666,84.2895508
242,1210000,1510000,242,-1925,-5912,-5776,182,-2209,1350,-0.234985352,-0.721679688,-0.705078125,11.1083984,-134.82666,82.3974609
243,1215008,1515008,243,-1995,-5672,-5634,154,-2203,1320,-0.243530273,-0.692382812,-0.687744141,9.39941406,-134.460449,80.5664062
244,1220000,1520000,244,-2118,-5547,-5646,115,-2196,1282,-0.258544922,-0.677124023,-0.689208984,7.01904297,-134.033203,78.2470703
245,1225008,1525008,245,-2189,-5555,-5653,93,-2190,1240,-0.267211914,-0.678100586,-0.690063477,5.67626953,-133.666992,75.6835938
246,1230000,1530000,246,-2197,-5607,-5553,64,-2195,1204,-0.268188477,-0.684448242,-0.677856445,3.90625,-133.972168,73.4863281
247,1235008,1535008,247,-2187,-5700,-5552,46,-2207,1173,-0.266967773,-0.695800781,-0.677734375,2.80761719,-134.70459,71.5942383
248,1240000,1540000,248,-2211,-5820,-5463,62,-2204,1136,-0.269897461,-0.710449219,-0.666870117,3.78417969,-134.521484,69.3359375
249,1245008,1545008,249,-2191,-5875,-5303,60,-2186,1097,-0.267456055,-0.717163086,-0.647338867,3.66210938,-133.422852,66.9555664
250,1250000,1550000,250,-2100,-5871,-5371,41,-2173,1064,-0.256347656,-0.716674805,-0.655639648,2.50244141,-132.629395,64.9414062
251,1255008,1555008,251,-2006,-5862,-5397,49,-2153,1028,-0.244873047,-0.715576172,-0.658813477,2.99072266,-131.408691,62.7441406
252,1260000,1560000,252,-1917,-5921,-5241,69,-2090,981,-0.234008789,-0.72277832,-0.639770508,4.21142578,-127.563477,59.8754883
253,1265008,1565008,253,-1862,-5981,-5136,66,-2027,951,-0.227294922,-0.730102539,-0.626953125,4.02832031,-123.718262,58.0444336
254,1270000,1570000,254,-1907,-5960,-5145,61,-1983,941,-0.232788086,-0.727539062,-0.628051758,3.72314453,-121.032715,57.434082
255,1275008,1575008,255,-2038,-5905,-5080,73,-1922,921,-0.248779297,-0.720825195,-0.620117188,4.45556641,-117.30957,56.2133789
256,1280000,1580000,256,-2145,-5827,-4950,77,-1863,897,-0.26184082,-0.711303711,-0.604248047,4.69970703,-113.708496,54.7485352
257,1285008,1585008,257,-2277,-5762,-4914,72,-1815,866,-0.277954102,-0.703369141,-0.599853516,4.39453125,-110.778809,52.8564453
258,1290000,1590000,258,-2382,-5764,-4867,80,-1764,818,-0.290771484,-0.703613281,-0.594116211,4.8828125,-107.666016,49.9267578
259,1295008,1595008,259,-2418,-5785,-4827,91,-1709,780,-0.295166016,-0.706176758,-0.589233398,5.55419922,-104.309082,47.6074219
260,1300000,1600000,260,-2438,-5735,-4763,108,-1648,749,-0.297607422,-0.700073242,-0.581420898,6.59179688,-100.585938,45.715332
261,1305008,1605008,261,-2425,-5669,-4654,111,-1578,725,-0.296020508,-0.692016602,-0.568115234,6.77490234,-96.3134766,44.2504883
262,1310000,1610000,262,-2566,-5621,-4724,105,-1520,723,-0.313232422,-0.686157227,-0.576660156,6.40869141,-92.7734375,44.128418
263,1315008,1615008,263,-2819,-5536,-4690,105,-1488,707,-0.344116211,-0.67578125,-0.572509766,6.40869141,-90.8203125,43.1518555
264,1320000,1620000,264,-2924,-5509,-4621,95,-1450,669,-0.356933594,-0.672485352,-0.564086914,5.79833984,-88.5009766,40.8325195
265,1325008,1625008,265,-2898,-5540,-4699,85,-1408,645,-0.353759766,-0.676269531,-0.573608398,5.18798828,-85.9375,39.3676758
266,1330000,1630000,266,-2878,-5556,-4695,86,-1381,628,-0.351318359,-0.678222656,-0.573120117,5.24902344,-84.2895508,38.3300781
267,1335008,1635008,267,-2914,-5607,-4649,87,-1352,613,-0.355712891,-0.684448242,-0.567504883,5.31005859,-82.5195312,37.4145508
268,1340000,1640000,268,-2961,-5661,-4656,90,-1329,594,-0.361450195,-0.691040039,-0.568359375,5.49316406,-81.1157227,36.2548828
269,1345008,1645008,269,-2931,-5637,-4625,91,-1290,574,-0.357788086,-0.688110352,-0.564575195,5.55419922,-78.7353516,35.0341797
270,1350000,1650000,270,-2962,-5622,-4599,88,-1237,562,-0.361572266,-0.686279297,-0.561401367,5.37109375,-75.5004883,34.3017578
271,1355008,1655008,271,-3026,-5624,-4516,74,-1192,546,-0.369384766,-0.686523438,-0.551269531,4.51660156,-72.7539062,33.3251953
272,1360000,1660000,272,-3121,-5588,-4563,57,-1142,514,-0.380981445,-0.682128906,-0.557006836,3.47900391,-69.7021484,31.3720703
273,1365008,1665008,273,-3148,-5619,-4637,67,-1093,463,-0.384277344,-0.685913086,-0.566040039,4.08935547,-66.7114258,28.2592773
274,1370000,1670000,274,-3091,-5677,-4623,76,-1054,431,-0.377319336,-0.692993164,-0.564331055,4.63867188,-64.3310547,26.3061523
275,1375008,1675008,275,-3055,-5626,-4636,80,-1014,408,-0.372924805,-0.686767578,-0.565917969,4.8828125,-61.8896484,24.9023438
276,1380000,1680000,276,-3038,-5581,-4554,66,-966,391,-0.370849609,-0.681274414,-0.555908203,4.02832031,-58.9599609,23.8647461
277,1385008,1685008,277,-3129,-5608,-4570,42,-916,376,-0.381958008,-0.684570312,-0.557861328,2.56347656,-55.9082031,22.9492188
278,1390000,1690000,278,-3104,-5672,-4511,32,-856,358,-0.37890625,-0.692382812,-0.55065918,1.953125,-52.2460938,21.8505859
279,1395008,1695008,279,-3141,-5741,-4613,27,-794,350,-0.383422852,-0.700805664,-0.563110352,1.64794922,-48.4619141,21.3623047
280,1400000,1700000,280,-3284,-5726,-4702,38,-753,351,-0.400878906,-0.698974609,-0.573974609,2.31933594,-45.9594727,21.4233398
281,1405008,1705008,281,-3379,-5640,-4594,50,-720,342,-0.412475586,-0.688476562,-0.560791016,3.05175781,-43.9453125,20.8740234
282,1410000,1710000,282,-3455,-5595,-4564,63,-673,311,-0.42175293,-0.682983398,-0.557128906,3.84521484,-41.0766602,18.9819336
283,1415008,1715008,283,-3323,-5609,-4476,66,-618,291,-0.405639648,-0.684692383,-0.546386719,4.02832031,-37.7197266,17.7612305
284,1420000,1720000,284,-3270,-5634,-4517,60,-556,279,-0.399169922,-0.687744141,-0.551391602,3.66210938,-33.9355469,17.0288086
285,1425008,1725008,285,-3405,-5690,-4536,68,-506,257,-0.415649414,-0.694580078,-0.553710938,4.15039062,-30.8837891,15.6860352
286,1430000,1730000,286,-3445,-5752,-4482,69,-476,251,-0.420532227,-0.702148438,-0.547119141,4.21142578,-29.0527344,15.3198242
287,1435008,1735008,287,-3489,-5773,-4494,72,-444,250,-0.42590332,-0.704711914,-0.548583984,4.39453125,-27.0996094,15.2587891
288,1440000,1740000,288,-3557,-5726,-4439,77,-402,231,-0.434204102,-0.698974609,-0.541870117,4.69970703,-24.5361328,14.0991211
289,1445008,1745008,289,-3591,-5680,-4454,76,-357,216,-0.438354492,-0.693359375,-0.543701172,4.63867188,-21.7895508,13.1835938
290,1450000,1750000,290,-3574,-5591,-4333,56,-323,215,-0.436279297,-0.682495117,-0.528930664,3.41796875,-19.7143555,13.1225586
291,1455008,1755008,291,-3726,-5549,-4543,33,-298,202,-0.454833984,-0.677368164,-0.55456543,2.01416016,-18.1884766,12.3291016
292,1460000,1760000,292,-3878,-5620,-4709,42,-288,167,-0.473388672,-0.686035156,-0.574829102,2.56347656,-17.578125,10.1928711
293,1465008,1765008,293,-3736,-5606,-4510,47,-277,140,-0.456054688,-0.684326172,-0.550537109,2.86865234,-16.9067383,8.54492188
294,1470000,1770000,294,-3682,-5569,-4616,40,-246,116,-0.449462891,-0.67980957,-0.563476562,2.44140625,-15.0146484,7.08007812
295,1475008,1775008,295,-3693,-5610,-4664,49,-217,84,-0.450805664,-0.684814453,-0.569335938,2.99072266,-13.2446289,5.12695312
296,1480000,1780000,296,-3667,-5632,-4676,55,-193,60,-0.447631836,-0.6875,-0.570800781,3.35693359,-11.7797852,3.66210938
297,1485008,1785008,297,-3644,-5608,-4724,58,-164,35,-0.444824219,-0.684570312,-0.576660156,3.54003906,-10.0097656,2.13623047
298,1490000,1790000,298,-3573,-5581,-4755,61,-127,12,-0.436157227,-0.681274414,-0.580444336,3.72314453,-7.75146484,0.732421875
299,1495008,1795008,299,-3551,-5548,-4822,64,-85,-3,-0.43347168,-0.677246094,-0.588623047,3.90625,-5.18798828,-0.183105469
300,1500000,1800000,300,-3532,-5486,-4869,70,-42,-18,-0.431152344,-0.669677734,-0.594360352,4.27246094,-2.56347656,-1.09863281
301,1505008,1805008,301,-3462,-5379,-4851,72,4,-37,-0.422607422,-0.656616211,-0.592163086,4.39453125,0.244140625,-2.25830078
302,1510000,1810000,302,-3398,-5303,-4819,71,56,-59,-0.414794922,-0.647338867,-0.588256836,4.33349609,3.41796875,-3.60107422
303,1515008,1815008,303,-3348,-5277,-4806,69,109,-82,-0.408691406,-0.644165039,-0.586669922,4.21142578,6.65283203,-5.00488281
304,1520000,1820000,304,-3321,-5275,-4785,67,162,-103,-0.405395508,-0.643920898,-0.584106445,4.08935547,9.88769531,-6.28662109
305,1525008,1825008,305,-3316,-5297,-4767,65,216,-125,-0.404785156,-0.646606445,-0.58190918,3.96728516,13.1835938,-7.62939453
306,1530000,1830000,306,-3326,-5319,-4737,63,264,-148,-0.406005859,-0.649291992,-0.57824707,3.84521484,16.1132812,-9.03320312
307,1535008,1835008,307,-3337,-5317,-4685,59,309,-172,-0.407348633,-0.649047852,-0.571899414,3.60107422,18.8598633,-10.4980469
308,1540000,1840000,308,-3359,-5292,-4643,51,356,-197,-0.41003418,-0.645996094,-0.566772461,3.11279297,21.7285156,-12.0239258
309,1545008,1845008,309,-3415,-5265,-4616,38,400,-224,-0.416870117,-0.642700195,-0.563476562,2.31933594,24.4140625,-13.671875
310,1550000,1850000,310,-3471,-5249,-4597,21,439,-253,-0.423706055,-0.64074707,-0.561157227,1.28173828,26.7944336,-15.4418945
311,1555008,1855008,311,-3508,-5222,-4555,1,476,-280,-0.428222656,-0.637451172,-0.556030273,0.0610351562,29.0527344,-17.0898438
312,1560000,1860000,312,-3555,-5194,-4503,-22,520,-309,-0.433959961,-0.634033203,-0.549682617,-1.34277344,31.7382812,-18.8598633
313,1565008,1865008,313,-3639,-5188,-4494,-45,569,-339,-0.444213867,-0.633300781,-0.548583984,-2.74658203,34.7290039,-20.690918
314,1570000,1870000,314,-3727,-5198,-4487,-67,615,-372,-0.454956055,-0.634521484,-0.547729492,-4.08935547,37.5366211,-22.7050781
315,1575008,1875008,315,-3761,-5225,-4500,-92,664,-404,-0.459106445,-0.637817383,-0.549316406,-5.61523438,40.5273438,-24.6582031
316,1580000,1880000,316,-3733,-5264,-4533,-114,719,-432,-0.455688477,-0.642578125,-0.553344727,-6.95800781,43.8842773,-26.3671875
317,1585008,1885008,317,-3658,-5312,-4531,-129,783,-460,-0.446533203,-0.6484375,-0.553100586,-7.87353516,47.7905273,-28.0761719
318,1590000,1890000,318,-3542,-5354,-4510,-142,858,-483,-0.432373047,-0.653564453,-0.550537109,-8.66699219,52.3681641,-29.4799805
319,1595008,1895008,319,-3403,-5379,-4483,-152,947,-501,-0.415405273,-0.656616211,-0.547241211,-9.27734375,57.800293,-30.5786133
320,1600000,1900000,320,-3266,-5399,-4428,-160,1049,-520,-0.398681641,-0.659057617,-0.540527344,-9.765625,64.0258789,-31.7382812
321,1605008,1905008,321,-3153,-5445,-4375,-169,1169,-539,-0.384887695,-0.664672852,-0.534057617,-10.3149414,71.3500977,-32.8979492
322,1610000,1910000,322,-3083,-5500,-4362,-179,1301,-556,-0.376342773,-0.671386719,-0.532470703,-10.925293,79.4067383,-33.9355469
323,1615008,1915008,323,-3045,-5547,-4363,-178,1429,-573,-0.371704102,-0.677124023,-0.532592773,-10.8642578,87.2192383,-34.9731445
324,1620000,1920000,324,-3051,-5597,-4279,-167,1540,-589,-0.372436523,-0.683227539,-0.522338867,-10.1928711,93.9941406,-35.949707
325,1625008,1925008,325,-3112,-5639,-4155,-159,1631,-608,-0.379882812,-0.688354492,-0.507202148,-9.70458984,99.5483398,-37.109375
326,1630000,1930000,326,-3208,-5657,-4112,-149,1722,-637,-0.391601562,-0.690551758,-0.501953125,-9.09423828,105.102539,-38.8793945
327,1635008,1935008,327,-3368,-5655,-4150,-138,1815,-671,-0.411132812,-0.690307617,-0.506591797,-8.42285156,110.778809,-40.9545898
328,1640000,1940000,328,-3622,-5659,-4216,-138,1888,-707,-0.442138672,-0.690795898,-0.514648438,-8.42285156,115.234375,-43.1518555
329,1645008,1945008,329,-3885,-5683,-4339,-150,1937,-751,-0.474243164,-0.693725586,-0.529663086,-9.15527344,118.225098,-45.8374023
330,1650000,1950000,330,-4062,-5726,-4538,-157,1961,-800,-0.495849609,-0.698974609,-0.553955078,-9.58251953,119.689941,-48.828125
331,1655008,1955008,331,-4137,-5716,-4650,-158,1960,-842,-0.505004883,-0.697753906,-0.567626953,-9.64355469,119.628906,-51.3916016
332,1660000,1960000,332,-4134,-5616,-4688,-171,1954,-882,-0.504638672,-0.685546875,-0.572265625,-10.4370117,119.262695,-53.8330078
333,1665008,1965008,333,-4064,-5513,-4763,-198,1953,-921,-0.49609375,-0.672973633,-0.581420898,-12.0849609,119.20166,-56.2133789
334,1670000,1970000,334,-3894,-5467,-4848,-235,1962,-954,-0.475341797,-0.667358398,-0.591796875,-14.3432617,119.750977,-58.2275391
335,1675008,1975008,335,-3664,-5489,-4973,-274,1984,-972,-0.447265625,-0.670043945,-0.607055664,-16.7236328,121.09375,-59.3261719
336,1680000,1980000,336,-3435,-5555,-5145,-303,2009,-976,-0.419311523,-0.678100586,-0.628051758,-18.4936523,122.619629,-59.5703125
337,1685008,1985008,337,-3198,-5636,-5290,-320,2040,-979,-0.390380859,-0.687988281,-0.645751953,-19.53125,124.511719,-59.753418
338,1690000,1990000,338,-2925,-5735,-5406,-324,2088,-982,-0.357055664,-0.700073242,-0.659912109,-19.7753906,127.441406,-59.9365234
339,1695008,1995008,339,-2689,-5880,-5470,-314,2143,-983,-0.32824707,-0.717773438,-0.667724609,-19.1650391,130.79834,-59.9975586
340,1700000,2000000,340,-2500,-6039,-5431,-291,2206,-980,-0.305175781,-0.737182617,-0.662963867,-17.7612305,134.643555,-59.8144531
341,1705008,2005008,341,-2333,-6168,-5354,-254,2290,-983,-0.284790039,-0.752929688,-0.653564453,-15.5029297,139.770508,-59.9975586
342,1710000,2010000,342,-2188,-6340,-5362,-199,2406,-1002,-0.267089844,-0.773925781,-0.654541016,-12.1459961,146.850586,-61.1572266
343,1715008,2015008,343,-2120,-6497,-5395,-137,2514,-1021,-0.258789062,-0.79309082,-0.658569336,-8.36181641,153.442383,-62.3168945
344,1720000,2020000,344,-2189,-6585,-5467,-83,2588,-1034,-0.267211914,-0.803833008,-0.667358398,-5.06591797,157.958984,-63.1103516
345,1725008,2025008,345,-2263,-6667,-5518,-16,2650,-1050,-0.276245117,-0.813842773,-0.673583984,-0.9765625,161.743164,-64.0869141
346,1730000,2030000,346,-2376,-6738,-5460,41,2699,-1070,-0.290039062,-0.822509766,-0.666503906,2.50244141,164.733887,-65.3076172
347,1735008,2035008,347,-2500,-6829,-5449,65,2721,-1113,-0.305175781,-0.833618164,-0.665161133,3.96728516,166.07666,-67.9321289
348,1740000,2040000,348,-2517,-6921,-5569,79,2706,-1153,-0.307250977,-0.844848633,-0.67980957,4.82177734,165.161133,-70.3735352
349,1745008,2045008,349,-2479,-6928,-5736,102,2652,-1173,-0.302612305,-0.845703125,-0.700195312,6.22558594,161.865234,-71.5942383
350,1750000,2050000,350,-2403,-6843,-5851,133,2587,-1191,-0.293334961,-0.835327148,-0.714233398,8.11767578,157.897949,-72.6928711
351,1755008,2055008,351,-2208,-6690,-5857,165,2520,-1202,-0.26953125,-0.816650391,-0.71496582,10.0708008,153.808594,-73.3642578
352,1760000,2060000,352,-2011,-6411,-5833,174,2451,-1201,-0.245483398,-0.782592773,-0.712036133,10.6201172,149.597168,-73.3032227
353,1765008,2065008,353,-1886,-6062,-5843,142,2385,-1213,-0.230224609,-0.739990234,-0.713256836,8.66699219,145.568848,-74.0356445
354,1770000,2070000,354,-1685,-5794,-5892,66,2335,-1240,-0.205688477,-0.707275391,-0.719238281,4.02832031,142.51709,-75.6835938
355,1775008,2075008,355,-1418,-5650,-6045,-18,2311,-1256,-0.173095703,-0.689697266,-0.737915039,-1.09863281,141.052246,-76.6601562
356,1780000,2080000,356,-1155,-5589,-6231,-87,2295,-1255,-0.140991211,-0.682250977,-0.760620117,-5.31005859,140.075684,-76.5991211
357,1785008,2085008,357,-827,-5634,-6332,-159,2278,-1234,-0.100952148,-0.687744141,-0.772949219,-9.70458984,139.038086,-75.3173828
358,1790000,2090000,358,-488,-5776,-6335,-206,2261,-1195,-0.0595703125,-0.705078125,-0.77331543,-12.5732422,138.000488,-72.9370117
359,1795008,2095008,359,-262,-5942,-6307,-208,2273,-1150,-0.0319824219,-0.725341797,-0.769897461,-12.6953125,138.73291,-70.1904297
360,1800000,2100000,360,-67,-6129,-6315,-175,2298,-1113,-0.00817871094,-0.748168945,-0.770874023,-10.6811523,140.258789,-67.9321289
361,1805008,2105008,361,146,-6282,-6291,-137,2313,-1067,0.0178222656,-0.766845703,-0.767944336,-8.36181641,141.174316,-65.1245117
362,1810000,2110000,362,319,-6415,-6275,-98,2355,-1025,0.0389404297,-0.783081055,-0.765991211,-5.98144531,143.737793,-62.5610352
363,1815008,2115008,363,444,-6587,-6344,-39,2410,-995,0.0541992188,-0.804077148,-0.774414062,-2.38037109,147.094727,-60.7299805
364,1820000,2120000,364,475,-6791,-6342,41,2425,-959,0.0579833984,-0.828979492,-0.774169922,2.50244141,148.010254,-58.5327148
365,1825008,2125008,365,424,-6971,-6107,137,2394,-916,0.0517578125,-0.850952148,-0.745483398,8.36181641,146.118164,-55.9082031
366,1830000,2130000,366,404,-7050,-5826,234,2339,-883,0.0493164062,-0.860595703,-0.711181641,14.2822266,142.76123,-53.894043
367,1835008,2135008,367,418,-6998,-5759,331,2267,-865,0.0510253906,-0.854248047,-0.70300293,20.2026367,138.366699,-52.7954102
368,1840000,2140000,368,485,-6830,-5853,414,2180,-861,0.0592041016,-0.833740234,-0.714477539,25.2685547,133.056641,-52.5512695
369,1845008,2145008,369,581,-6610,-5981,475,2080,-867,0.0709228516,-0.806884766,-0.730102539,28.9916992,126.953125,-52.9174805
370,1850000,2150000,370,689,-6314,-5889,501,1962,-883,0.0841064453,-0.770751953,-0.71887207,30.5786133,119.750977,-53.894043
371,1855008,2155008,371,902,-5978,-5625,481,1863,-910,0.110107422,-0.729736328,-0.686645508,29.3579102,113.708496,-55.5419922
372,1860000,2160000,372,1164,-5624,-5445,430,1792,-936,0.142089844,-0.686523438,-0.664672852,26.2451172,109.375,-57.1289062
373,1865008,2165008,373,1406,-5258,-5389,350,1704,-954,0.171630859,-0.641845703,-0.657836914,21.3623047,104.003906,-58.2275391
374,1870000,2170000,374,1619,-4984,-5489,248,1597,-960,0.197631836,-0.608398438,-0.670043945,15.1367188,97.4731445,-58.59375
375,1875008,2175008,375,1824,-4808,-5590,140,1503,-950,0.22265625,-0.586914062,-0.682373047,8.54492188,91.7358398,-57.9833984
376,1880000,2180000,376,2086,-4775,-5566,27,1430,-924,0.254638672,-0.582885742,-0.679443359,1.64794922,87.2802734,-56.3964844
377,1885008,2185008,377,2331,-4942,-5612,-80,1370,-878,0.284545898,-0.603271484,-0.685058594,-4.8828125,83.6181641,-53.5888672
378,1890000,2190000,378,2515,-5260,-5756,-154,1334,-825,0.307006836,-0.642089844,-0.702636719,-9.39941406,81.4208984,-50.3540039
379,1895008,2195008,379,2672,-5686,-5923,-181,1322,-771,0.326171875,-0.694091797,-0.723022461,-11.0473633,80.6884766,-47.0581055
380,1900000,2200000,380,2771,-6162,-6125,-168,1320,-707,0.338256836,-0.752197266,-0.747680664,-10.2539062,80.5664062,-43.1518555
381,1905008,2205008,381,2791,-6583,-6295,-124,1318,-638,0.340698242,-0.803588867,-0.768432617,-7.56835938,80.4443359,-38.9404297
382,1910000,2210000,382,2761,-6933,-6260,-36,1340,-581,0.337036133,-0.846313477,-0.764160156,-2.19726562,81.7871094,-35.4614258
383,1915008,2215008,383,2749,-7233,-5885,70,1414,-553,0.335571289,-0.88293457,-0.718383789,4.27246094,86.3037109,-33.7524414
384,1920000,2220000,384,2715,-7458,-5451,162,1519,-537,0.331420898,-0.910400391,-0.665405273,9.88769531,92.7124023,-32.7758789
385,1925008,2225008,385,2569,-7486,-5183,276,1605,-523,0.313598633,-0.913818359,-0.63269043,16.8457031,97.9614258,-31.9213867
386,1930000,2230000,386,2414,-7303,-5014,416,1625,-538,0.294677734,-0.891479492,-0.612060547,25.390625,99.1821289,-32.8369141
387,1935008,2235008,387,2364,-7057,-4933,551,1559,-579,0.288574219,-0.861450195,-0.602172852,33.6303711,95.1538086,-35.3393555
388,1940000,2240000,388,2341,-6752,-4863,679,1423,-611,0.285766602,-0.82421875,-0.59362793,41.4428711,86.8530273,-37.2924805
389,1945008,2245008,389,2296,-6272,-4688,780,1255,-636,0.280273438,-0.765625,-0.572265625,47.6074219,76.5991211,-38.8183594
390,1950000,2250000,390,2400,-5704,-4403,809,1106,-689,0.29296875,-0.696289062,-0.537475586,49.3774414,67.5048828,-42.0532227
391,1955008,2255008,391,2694,-5148,-4175,737,1004,-751,0.328857422,-0.628417969,-0.509643555,44.9829102,61.2792969,-45.8374023
392,1960000,2260000,392,2968,-4657,-4179,579,924,-795,0.362304688,-0.568481445,-0.510131836,35.3393555,56.3964844,-48.5229492
393,1965008,2265008,393,3060,-4283,-4346,400,829,-818,0.373535156,-0.522827148,-0.530517578,24.4140625,50.5981445,-49.9267578
394,1970000,2270000,394,3142,-4074,-4577,243,740,-827,0.383544922,-0.497314453,-0.55871582,14.831543,45.1660156,-50.4760742
395,1975008,2275008,395,3327,-4113,-4904,108,700,-830,0.40612793,-0.502075195,-0.598632812,6.59179688,42.7246094,-50.6591797
396,1980000,2280000,396,3565,-4378,-5278,9,727,-823,0.435180664,-0.534423828,-0.644287109,0.549316406,44.3725586,-50.2319336
397,1985008,2285008,397,3771,-4776,-5467,-81,780,-799,0.460327148,-0.583007812,-0.667358398,-4.94384766,47.6074219,-48.7670898
398,1990000,2290000,398,3923,-5247,-5530,-173,822,-744,0.478881836,-0.64050293,-0.675048828,-10.559082,50.1708984,-45.4101562
399,1995008,2295008,399,4047,-5748,-5616,-220,885,-675,0.494018555,-0.701660156,-0.685546875,-13.4277344,54.0161133,-41.1987305
400,2000000,2300000,400,4022,-6228,-5568,-216,977,-608,0.490966797,-0.760253906,-0.6796875,-13.1835938,59.6313477,-37.109375
401,2005008,2305008,401,3925,-6705,-5412,-176,1071,-548,0.479125977,-0.818481445,-0.660644531,-10.7421875,65.3686523,-33.4472656
402,2010000,2310000,402,3805,-7143,-5235,-105,1155,-499,0.464477539,-0.871948242,-0.639038086,-6.40869141,70.4956055,-30.456543
403,2015008,2315008,403,3613,-7486,-5085,3,1238,-468,0.441040039,-0.913818359,-0.620727539,0.183105469,75.5615234,-28.5644531
404,2020000,2320000,404,3436,-7656,-4911,145,1306,-463,0.419433594,-0.934570312,-0.599487305,8.85009766,79.7119141,-28.2592773
405,2025008,2325008,405,3334,-7572,-4658,274,1334,-488,0.406982422,-0.924316406,-0.568603516,16.7236328,81.4208984,-29.7851562
406,2030000,2330000,406,3337,-7301,-4429,365,1342,-543,0.407348633,-0.891235352,-0.540649414,22.277832,81.9091797,-33.1420898
407,2035008,2335008,407,3411,-6873,-4234,422,1329,-606,0.416381836,-0.838989258,-0.516845703,25.7568359,81.1157227,-36.9873047
408,2040000,2340000,408,3497,-6310,-4020,446,1281,-677,0.426879883,-0.770263672,-0.490722656,27.2216797,78.1860352,-41.3208008
409,2045008,2345008,409,3601,-5730,-3771,445,1225,-766,0.439575195,-0.699462891,-0.460327148,27.1606445,74.7680664,-46.7529297
410,2050000,2350000,410,3735,-5176,-3573,402,1175,-825,0.455932617,-0.631835938,-0.436157227,24.5361328,71.7163086,-50.3540039
411,2055008,2355008,411,3822,-4663,-3495,313,1104,-856,0.466552734,-0.569213867,-0.426635742,19.1040039,67.3828125,-52.2460938
412,2060000,2360000,412,3931,-4330,-3508,197,1011,-878,0.479858398,-0.528564453,-0.428222656,12.0239258,61.706543,-53.5888672
413,2065008,2365008,413,4084,-4183,-3554,75,920,-872,0.498535156,-0.510620117,-0.433837891,4.57763672,56.1523438,-53.2226562
414,2070000,2370000,414,4199,-4136,-3614,-46,834,-840,0.512573242,-0.504882812,-0.441162109,-2.80761719,50.9033203,-51.2695312
415,2075008,2375008,415,4332,-4223,-3687,-163,762,-801,0.528808594,-0.51550293,-0.450073242,-9.94873047,46.5087891,-48.8891602
416,2080000,2380000,416,4460,-4429,-3753,-275,713,-755,0.544433594,-0.540649414,-0.458129883,-16.784668,43.5180664,-46.081543
417,2085008,2385008,417,4499,-4710,-3867,-378,674,-705,0.549194336,-0.574951172,-0.472045898,-23.0712891,41.1376953,-43.0297852
418,2090000,2390000,418,4518,-5030,-4008,-458,625,-650,0.551513672,-0.614013672,-0.489257812,-27.9541016,38.1469727,-39.6728516
419,2095008,2395008,419,4552,-5352,-4135,-500,581,-584,0.555664062,-0.653320312,-0.504760742,-30.5175781,35.4614258,-35.6445312
420,2100000,2400000,420,4583,-5681,-4249,-502,557,-518,0.559448242,-0.693481445,-0.518676758,-30.6396484,33.996582,-31.6162109
421,2105008,2405008,421,4720,-5934,-4338,-454,554,-457,0.576171875,-0.724365234,-0.529541016,-27.7099609,33.8134766,-27.8930664
422,2110000,2410000,422,4826,-6027,-4299,-353,595,-408,0.589111328,-0.735717773,-0.524780273,-21.5454102,36.315918,-24.9023438
423,2115008,2415008,423,4804,-6068,-4167,-245,673,-385,0.586425781,-0.740722656,-0.508666992,-14.9536133,41.0766602,-23.4985352
424,2120000,2420000,424,4658,-6075,-4019,-161,732,-379,0.568603516,-0.741577148,-0.490600586,-9.82666016,44.6777344,-23.1323242
425,2125008,2425008,425,4505,-6060,-3923,-99,751,-379,0.549926758,-0.739746094,-0.478881836,-6.04248047,45.8374023,-23.1323242
426,2130000,2430000,426,4408,-5992,-3913,-57,736,-381,0.538085938,-0.731445312,-0.477661133,-3.47900391,44.921875,-23.2543945
427,2135008,2435008,427,4333,-5819,-3902,-25,705,-390,0.528930664,-0.710327148,-0.476318359,-1.52587891,43.0297852,-23.8037109
428,2140000,2440000,428,4313,-5626,-3866,-13,675,-412,0.526489258,-0.686767578,-0.471923828,-0.793457031,41.1987305,-25.1464844
429,2145008,2445008,429,4329,-5442,-3846,-28,643,-433,0.528442383,-0.664306641,-0.469482422,-1.70898438,39.2456055,-26.4282227
430,2150000,2450000,430,4375,-5208,-3864,-67,599,-444,0.534057617,-0.635742188,-0.471679688,-4.08935547,36.5600586,-27.0996094
431,2155008,2455008,431,4408,-4960,-3888,-124,557,-455,0.538085938,-0.60546875,-0.474609375,-7.56835938,33.996582,-27.7709961
432,2160000,2460000,432,4499,-4796,-3934,-182,532,-468,0.549194336,-0.585449219,-0.480224609,-11.1083984,32.4707031,-28.5644531
433,2165008,2465008,433,4614,-4692,-3976,-234,517,-471,0.563232422,-0.572753906,-0.485351562,-14.2822266,31.5551758,-28.7475586
434,2170000,2470000,434,4684,-4645,-3960,-282,515,-461,0.571777344,-0.567016602,-0.483398438,-17.2119141,31.4331055,-28.137207
435,2175008,2475008,435,4797,-4660,-3907,-326,529,-444,0.585571289,-0.568847656,-0.476928711,-19.8974609,32.2875977,-27.0996094
436,2180000,2480000,436,4986,-4708,-3845,-362,567,-417,0.608642578,-0.574707031,-0.469360352,-22.0947266,34.6069336,-25.4516602
437,2185008,2485008,437,5037,-4779,-3742,-385,630,-389,0.614868164,-0.583374023,-0.456787109,-23.4985352,38.4521484,-23.7426758
438,2190000,2490000,438,4971,-4914,-3655,-399,681,-369,0.606811523,-0.599853516,-0.446166992,-24.3530273,41.5649414,-22.5219727
439,2195008,2495008,439,4940,-5115,-3589,-395,700,-354,0.603027344,-0.624389648,-0.438110352,-24.1088867,42.7246094,-21.6064453
440,2200000,2500000,440,4891,-5303,-3520,-368,703,-338,0.597045898,-0.647338867,-0.4296875,-22.4609375,42.9077148,-20.6298828
441,2205008,2505008,441,4821,-5395,-3441,-324,702,-324,0.588500977,-0.658569336,-0.420043945,-19.7753906,42.8466797,-19.7753906
442,2210000,2510000,442,4733,-5374,-3330,-279,699,-315,0.577758789,-0.656005859,-0.406494141,-17.0288086,42.6635742,-19.2260742
443,2215008,2515008,443,4667,-5317,-3253,-247,689,-315,0.569702148,-0.649047852,-0.397094727,-15.0756836,42.0532227,-19.2260742
444,2220000,2520000,444,4662,-5263,-3203,-220,669,-312,0.569091797,-0.642456055,-0.390991211,-13.4277344,40.8325195,-19.0429688
445,2225008,2525008,445,4663,-5192,-3120,-192,640,-300,0.569213867,-0.633789062,-0.380859375,-11.71875,39.0625,-18.3105469
446,2230000,2530000,446,4661,-5114,-3035,-170,603,-290,0.568969727,-0.624267578,-0.370483398,-10.3759766,36.8041992,-17.7001953
447,2235008,2535008,447,4682,-5022,-2984,-151,570,-280,0.571533203,-0.613037109,-0.364257812,-9.21630859,34.7900391,-17.0898438
448,2240000,2540000,448,4701,-4914,-2955,-131,544,-267,0.573852539,-0.599853516,-0.360717773,-7.99560547,33.203125,-16.2963867
449,2245008,2545008,449,4742,-4845,-2936,-116,509,-257,0.578857422,-0.591430664,-0.358398438,-7.08007812,31.0668945,-15.6860352
450,2250000,2550000,450,4801,-4849,-2920,-103,470,-248,0.58605957,-0.591918945,-0.356445312,-6.28662109,28.6865234,-15.1367188
451,2255008,2555008,451,4857,-4881,-2882,-91,433,-236,0.592895508,-0.595825195,-0.351806641,-5.55419922,26.4282227,-14.4042969
452,2260000,2560000,452,4887,-4921,-2837,-86,403,-222,0.596557617,-0.600708008,-0.346313477,-5.24902344,24.597168,-13.5498047
453,2265008,2565008,453,4906,-4980,-2842,-73,378,-209,0.598876953,-0.607910156,-0.346923828,-4.45556641,23.0712891,-12.7563477
454,2270000,2570000,454,4917,-5047,-2854,-46,350,-190,0.600219727,-0.616088867,-0.348388672,-2.80761719,21.3623047,-11.5966797
455,2275008,2575008,455,4905,-5102,-2829,-14,321,-170,0.598754883,-0.622802734,-0.345336914,-0.854492188,19.5922852,-10.3759766
456,2280000,2580000,456,4878,-5120,-2815,7,291,-152,0.595458984,-0.625,-0.34362793,0.427246094,17.7612305,-9.27734375
457,2285008,2585008,457,4846,-5086,-2832,19,258,-138,0.591552734,-0.620849609,-0.345703125,1.15966797,15.7470703,-8.42285156
458,2290000,2590000,458,4830,-5019,-2863,26,224,-126,0.589599609,-0.612670898,-0.349487305,1.58691406,13.671875,-7.69042969
459,2295008,2595008,459,4849,-4947,-2903,28,194,-112,0.591918945,-0.603881836,-0.354370117,1.70898438,11.8408203,-6.8359375
460,2300000,2600000,460,4903,-4909,-2957,25,170,-96,0.598510742,-0.599243164,-0.360961914,1.52587891,10.3759766,-5.859375
461,2305008,2605008,461,4958,-4925,-3028,18,149,-78,0.605224609,-0.601196289,-0.369628906,1.09863281,9.09423828,-4.76074219
462,2310000,2610000,462,4987,-4992,-3131,11,132,-58,0.608764648,-0.609375,-0.382202148,0.671386719,8.05664062,-3.54003906
463,2315008,2615008,463,4963,-5087,-3248,5,118,-38,0.605834961,-0.62097168,-0.396484375,0.305175781,7.20214844,-2.31933594
464,2320000,2620000,464,4905,-5168,-3353,1,103,-21,0.598754883,-0.630859375,-0.409301758,0.0610351562,6.28662109,-1.28173828
465,2325008,2625008,465,4853,-5240,-3435,1,84,-1,0.592407227,-0.639648438,-0.419311523,0.0610351562,5.12695312,-0.0610351562
466,2330000,2630000,466,4825,-5305,-3483,3,63,20,0.588989258,-0.647583008,-0.425170898,0.183105469,3.84521484,1.22070312
467,2335008,2635008,467,4842,-5341,-3511,4,44,41,0.591064453,-0.651977539,-0.428588867,0.244140625,2.68554688,2.50244141
468,2340000,2640000,468,4877,-5364,-3515,6,32,62,0.595336914,-0.654785156,-0.429077148,0.366210938,1.953125,3.78417969
469,2345008,2645008,469,4897,-5371,-3504,7,23,82,0.59777832,-0.655639648,-0.427734375,0.427246094,1.40380859,5.00488281
470,2350000,2650000,470,4903,-5368,-3510,10,12,100,0.598510742,-0.655273438,-0.428466797,0.610351562,0.732421875,6.10351562
471,2355008,2655008,471,4891,-5372,-3512,15,-4,119,0.597045898,-0.655761719,-0.428710938,0.915527344,-0.244140625,7.26318359
472,2360000,2660000,472,4865,-5358,-3509,17,-23,137,0.59387207,-0.654052734,-0.428344727,1.03759766,-1.40380859,8.36181641
473,2365008,2665008,473,4840,-5326,-3510,14,-45,151,0.590820312,-0.650146484,-0.428466797,0.854492188,-2.74658203,9.21630859
474,2370000,2670000,474,4823,-5284,-3506,3,-67,163,0.588745117,-0.645019531,-0.427978516,0.183105469,-4.08935547,9.94873047
475,2375008,2675008,475,4822,-5221,-3496,-17,-88,175,0.588623047,-0.637329102,-0.426757812,-1.03759766,-5.37109375,10.6811523
476,2380000,2680000,476,4845,-5149,-3462,-39,-106,184,0.591430664,-0.628540039,-0.422607422,-2.38037109,-6.46972656,11.2304688
477,2385008,2685008,477,4908,-5062,-3398,-59,-116,190,0.599121094,-0.617919922,-0.414794922,-3.60107422,-7.08007812,11.5966797
478,2390000,2690000,478,4990,-4936,-3293,-78,-121,197,0.609130859,-0.602539062,-0.401977539,-4.76074219,-7.38525391,12.0239258
479,2395008,2695008,479,5075,-4811,-3162,-99,-121,204,0.619506836,-0.587280273,-0.385986328,-6.04248047,-7.38525391,12.4511719
480,2400000,2700000,480,5160,-4713,-3041,-121,-122,213,0.629882812,-0.575317383,-0.37121582,-7.38525391,-7.44628906,13.0004883
481,2405008,2705008,481,5209,-4640,-2924,-144,-128,227,0.635864258,-0.56640625,-0.356933594,-8.7890625,-7.8125,13.8549805
482,2410000,2710000,482,5239,-4592,-2823,-165,-138,243,0.639526367,-0.560546875,-0.344604492,-10.0708008,-8.42285156,14.831543
483,2415008,2715008,483,5258,-4538,-2691,-182,-147,257,0.641845703,-0.553955078,-0.328491211,-11.1083984,-8.97216797,15.6860352
484,2420000,2720000,484,5286,-4463,-2506,-196,-151,269,0.645263672,-0.544799805,-0.305908203,-11.9628906,-9.21630859,16.418457
485,2425008,2725008,485,5347,-4387,-2322,-209,-153,285,0.652709961,-0.535522461,-0.283447266,-12.7563477,-9.33837891,17.3950195
486,2430000,2730000,486,5374,-4331,-2169,-220,-160,306,0.656005859,-0.528686523,-0.264770508,-13.4277344,-9.765625,18.6767578
487,2435008,2735008,487,5351,-4350,-2109,-226,-186,331,0.653198242,-0.531005859,-0.257446289,-13.7939453,-11.3525391,20.2026367
488,2440000,2740000,488,5268,-4440,-2126,-221,-246,368,0.643066406,-0.541992188,-0.259521484,-13.4887695,-15.0146484,22.4609375
489,2445008,2745008,489,5127,-4567,-2186,-215,-335,409,0.625854492,-0.557495117,-0.266845703,-13.1225586,-20.4467773,24.9633789
490,2450000,2750000,490,5028,-4740,-2301,-209,-437,448,0.613769531,-0.578613281,-0.280883789,-12.7563477,-26.6723633,27.34375
491,2455008,2755008,491,4928,-4891,-2435,-194,-535,484,0.6015625,-0.597045898,-0.297241211,-11.8408203,-32.6538086,29.5410156
492,2460000,2760000,492,4864,-5051,-2623,-170,-627,516,0.59375,-0.616577148,-0.32019043,-10.3759766,-38.269043,31.4941406
493,2465008,2765008,493,4885,-5255,-2875,-127,-723,558,0.596313477,-0.641479492,-0.350952148,-7.75146484,-44.128418,34.0576172
494,2470000,2770000,494,4875,-5413,-3098,-66,-818,601,0.595092773,-0.660766602,-0.378173828,-4.02832031,-49.9267578,36.6821289
495,2475008,2775008,495,4894,-5497,-3224,2,-889,629,0.597412109,-0.671020508,-0.393554688,0.122070312,-54.2602539,38.3911133
496,2480000,2780000,496,4947,-5528,-3331,66,-929,648,0.603881836,-0.674804688,-0.406616211,4.02832031,-56.7016602,39.5507812
497,2485008,2785008,497,4992,-5513,-3478,132,-955,663,0.609375,-0.672973633,-0.424560547,8.05664062,-58.2885742,40.4663086
498,2490000,2790000,498,5049,-5479,-3602,199,-986,674,0.616333008,-0.668823242,-0.439697266,12.1459961,-60.1806641,41.1376953
499,2495008,2795008,499,5088,-5469,-3669,259,-1026,688,0.62109375,-0.667602539,-0.447875977,15.8081055,-62.6220703,41.9921875
500,2500000,2800000,500,5110,-5454,-3660,312,-1063,711,0.623779297,-0.665771484,-0.446777344,19.0429688,-64.8803711,43.3959961
501,2505008,2805008,501,5063,-5399,-3645,354,-1094,727,0.618041992,-0.659057617,-0.444946289,21.6064453,-66.7724609,44.3725586
502,2510000,2810000,502,5062,-5352,-3695,378,-1125,725,0.617919922,-0.653320312,-0.451049805,23.0712891,-68.6645508,44.2504883
503,2515008,2815008,503,5121,-5335,-3799,384,-1163,722,0.62512207,-0.651245117,-0.463745117,23.4375,-70.9838867,44.0673828
504,2520000,2820000,504,5156,-5354,-3952,373,-1204,715,0.629394531,-0.653564453,-0.482421875,22.7661133,-73.4863281,43.6401367
505,2525008,2825008,505,5243,-5463,-4214,357,-1239,699,0.640014648,-0.666870117,-0.514404297,21.7895508,-75.6225586,42.6635742
506,2530000,2830000,506,5293,-5565,-4472,355,-1263,700,0.646118164,-0.679321289,-0.545898438,21.6674805,-77.0874023,42.7246094
507,2535008,2835008,507,5238,-5615,-4583,353,-1271,698,0.639404297,-0.685424805,-0.559448242,21.5454102,-77.5756836,42.6025391
508,2540000,2840000,508,5164,-5669,-4607,332,-1272,679,0.630371094,-0.692016602,-0.56237793,20.2636719,-77.6367188,41.4428711
509,2545008,2845008,509,5133,-5699,-4490,295,-1270,669,0.626586914,-0.695678711,-0.548095703,18.0053711,-77.5146484,40.8325195
510,2550000,2850000,510,5068,-5764,-4401,235,-1270,674,0.618652344,-0.703613281,-0.537231445,14.3432617,-77.5146484,41.1376953
511,2555008,2855008,511,4870,-5897,-4568,176,-1291,680,0.594482422,-0.719848633,-0.557617188,10.7421875,-78.7963867,41.5039062
512,2560000,2860000,512,4633,-6116,-4837,153,-1339,681,0.565551758,-0.746582031,-0.590454102,9.33837891,-81.7260742,41.5649414
513,2565008,2865008,513,4393,-6332,-5064,163,-1379,675,0.536254883,-0.772949219,-0.618164062,9.94873047,-84.1674805,41.1987305
514,2570000,2870000,514,4144,-6392,-5168,189,-1395,651,0.505859375,-0.780273438,-0.630859375,11.5356445,-85.144043,39.7338867
515,2575008,2875008,515,3971,-6320,-5100,201,-1400,610,0.484741211,-0.771484375,-0.622558594,12.2680664,-85.4492188,37.2314453
516,2580000,2880000,516,3817,-6125,-5092,196,-1405,575,0.465942383,-0.747680664,-0.621582031,11.9628906,-85.7543945,35.0952148
517,2585008,2885008,517,3653,-5906,-5306,190,-1438,550,0.445922852,-0.720947266,-0.647705078,11.5966797,-87.7685547,33.5693359
518,2590000,2890000,518,3469,-5710,-5556,179,-1497,538,0.423461914,-0.697021484,-0.678222656,10.925293,-91.3696289,32.8369141
519,2595008,2895008,519,3251,-5528,-5681,145,-1534,545,0.396850586,-0.674804688,-0.693481445,8.85009766,-93.6279297,33.2641602
520,2600000,2900000,520,3064,-5413,-5763,81,-1556,568,0.374023438,-0.660766602,-0.703491211,4.94384766,-94.9707031,34.6679688
521,2605008,2905008,521,2867,-5306,-5799,-6,-1602,603,0.349975586,-0.647705078,-0.707885742,-0.366210938,-97.7783203,36.8041992
522,2610000,2910000,522,2734,-5250,-5779,-101,-1682,638,0.333740234,-0.640869141,-0.705444336,-6.16455078,-102.661133,38.9404297
523,2615008,2915008,523,2664,-5264,-5754,-164,-1766,677,0.325195312,-0.642578125,-0.702392578,-10.0097656,-107.788086,41.3208008
524,2620000,2920000,524,2619,-5302,-5719,-190,-1821,714,0.319702148,-0.647216797,-0.698120117,-11.5966797,-111.14502,43.5791016
525,2625008,2925008,525,2625,-5413,-5659,-212,-1866,755,0.32043457,-0.660766602,-0.690795898,-12.9394531,-113.891602,46.081543
526,2630000,2930000,526,2575,-5599,-5623,-272,-1915,807,0.314331055,-0.68347168,-0.686401367,-16.6015625,-116.882324,49.2553711
527,2635008,2935008,527,2431,-5803,-5721,-355,-1952,856,0.29675293,-0.708374023,-0.698364258,-21.6674805,-119.140625,52.2460938
528,2640000,2940000,528,2209,-5970,-5891,-385,-1980,882,0.26965332,-0.728759766,-0.719116211,-23.4985352,-120.849609,53.8330078
529,2645008,2945008,529,2023,-6151,-5967,-345,-2014,896,0.246948242,-0.750854492,-0.728393555,-21.0571289,-122.924805,54.6875
530,2650000,2950000,530,1874,-6308,-5938,-284,-2055,917,0.228759766,-0.770019531,-0.724853516,-17.3339844,-125.427246,55.9692383
531,2655008,2955008,531,1727,-6339,-5867,-253,-2090,938,0.21081543,-0.773803711,-0.716186523,-15.4418945,-127.563477,57.2509766
532,2660000,2960000,532,1656,-6265,-5852,-251,-2111,958,0.202148438,-0.764770508,-0.714355469,-15.3198242,-128.845215,58.4716797
533,2665008,2965008,533,1604,-6181,-5958,-257,-2125,982,0.195800781,-0.754516602,-0.727294922,-15.6860352,-129.699707,59.9365234
534,2670000,2970000,534,1535,-6131,-6051,-272,-2137,1013,0.18737793,-0.748413086,-0.738647461,-16.6015625,-130.432129,61.8286133
535,2675008,2975008,535,1469,-6112,-6182,-290,-2151,1045,0.179321289,-0.74609375,-0.754638672,-17.7001953,-131.286621,63.7817383
536,2680000,2980000,536,1361,-6154,-6331,-275,-2190,1080,0.166137695,-0.751220703,-0.772827148,-16.784668,-133.666992,65.9179688
537,2685008,2985008,537,1194,-6268,-6362,-239,-2233,1122,0.145751953,-0.765136719,-0.776611328,-14.5874023,-136.291504,68.4814453
538,2690000,2990000,538,953,-6429,-6271,-232,-2243,1171,0.116333008,-0.784790039,-0.76550293,-14.1601562,-136.901855,71.472168
539,2695008,2995008,539,674,-6641,-6204,-244,-2231,1212,0.0822753906,-0.810668945,-0.757324219,-14.8925781,-136.169434,73.9746094
540,2700000,3000000,540,442,-6867,-6251,-239,-2219,1246,0.0539550781,-0.838256836,-0.763061523,-14.5874023,-135.437012,76.0498047
541,2705008,3005008,541,228,-7068,-6318,-204,-2219,1281,0.0278320312,-0.862792969,-0.771240234,-12.4511719,-135.437012,78.1860352
542,2710000,3010000,542,61,-7230,-6324,-141,-2233,1315,0.00744628906,-0.882568359,-0.771972656,-8.60595703,-136.291504,80.2612305
543,2715008,3015008,543,-34,-7245,-6270,-73,-2233,1351,-0.00415039062,-0.884399414,-0.765380859,-4.45556641,-136.291504,82.4584961
544,2720000,3020000,544,-191,-7180,-6254,2,-2233,1369,-0.0233154297,-0.876464844,-0.763427734,0.122070312,-136.291504,83.5571289
545,2725008,3025008,545,-288,-7115,-6203,88,-2222,1353,-0.03515625,-0.868530273,-0.757202148,5.37109375,-135.620117,82.5805664
546,2730000,3030000,546,-321,-6994,-6135,146,-2183,1322,-0.0391845703,-0.853759766,-0.748901367,8.91113281,-133.239746,80.6884766
547,2735008,3035008,547,-369,-6853,-6073,185,-2150,1290,-0.0450439453,-0.836547852,-0.741333008,11.2915039,-131.225586,78.7353516
548,2740000,3040000,548,-430,-6702,-6009,226,-2107,1260,-0.0524902344,-0.818115234,-0.733520508,13.7939453,-128.601074,76.9042969
549,2745008,3045008,549,-519,-6514,-5963,247,-2072,1228,-0.0633544922,-0.795166016,-0.727905273,15.0756836,-126.464844,74.9511719
550,2750000,3050000,550,-620,-6338,-5897,236,-2066,1186,-0.0756835938,-0.773681641,-0.719848633,14.4042969,-126.098633,72.3876953
551,2755008,3055008,551,-655,-6204,-5867,212,-2066,1152,-0.0799560547,-0.757324219,-0.716186523,12.9394531,-126.098633,70.3125
552,2760000,3060000,552,-662,-6090,-5870,186,-2078,1139,-0.0808105469,-0.743408203,-0.716552734,11.3525391,-126.831055,69.519043
553,2765008,3065008,553,-689,-5993,-5846,154,-2091,1145,-0.0841064453,-0.731567383,-0.713623047,9.39941406,-127.624512,69.8852539
554,2770000,3070000,554,-678,-5948,-5838,133,-2078,1138,-0.0827636719,-0.726074219,-0.712646484,8.11767578,-126.831055,69.4580078
555,2775008,3075008,555,-590,-5920,-5846,127,-2041,1116,-0.0720214844,-0.72265625,-0.713623047,7.75146484,-124.572754,68.1152344
556,2780000,3080000,556,-556,-5859,-5812,107,-2018,1109,-0.0678710938,-0.715209961,-0.709472656,6.53076172,-123.168945,67.6879883
557,2785008,3085008,557,-629,-5813,-5732,74,-2010,1098,-0.0767822266,-0.709594727,-0.699707031,4.51660156,-122.680664,67.0166016
558,2790000,3090000,558,-653,-5836,-5735,54,-1986,1081,-0.0797119141,-0.712402344,-0.700073242,3.29589844,-121.21582,65.9790039
559,2795008,3095008,559,-686,-5924,-5743,58,-1961,1071,-0.0837402344,-0.723144531,-0.701049805,3.54003906,-119.689941,65.3686523
560,2800000,3100000,560,-728,-6027,-5653,61,-1933,1066,-0.0888671875,-0.735717773,-0.690063477,3.72314453,-117.980957,65.0634766
561,2805008,3105008,561,-769,-6070,-5634,52,-1903,1066,-0.0938720703,-0.740966797,-0.687744141,3.17382812,-116.149902,65.0634766
562,2810000,3110000,562,-838,-6105,-5648,65,-1887,1058,-0.102294922,-0.745239258,-0.689453125,3.96728516,-115.17334,64.5751953
563,2815008,3115008,563,-897,-6142,-5551,106,-1852,1051,-0.10949707,-0.749755859,-0.677612305,6.46972656,-113.037109,64.1479492
564,2820000,3120000,564,-966,-6120,-5427,144,-1796,1039,-0.117919922,-0.747070312,-0.662475586,8.7890625,-109.619141,63.4155273
565,2825008,3125008,565,-1097,-6024,-5396,165,-1764,1020,-0.133911133,-0.735351562,-0.658691406,10.0708008,-107.666016,62.2558594
566,2830000,3130000,566,-1285,-5915,-5382,172,-1756,1000,-0.156860352,-0.722045898,-0.656982422,10.4980469,-107.177734,61.0351562
567,2835008,3135008,567,-1364,-5811,-5401,183,-1727,977,-0.166503906,-0.709350586,-0.659301758,11.1694336,-105.407715,59.6313477
568,2840000,3140000,568,-1359,-5682,-5327,201,-1689,964,-0.165893555,-0.693603516,-0.650268555,12.2680664,-103.088379,58.8378906
569,2845008,3145008,569,-1439,-5618,-5201,191,-1667,955,-0.17565918,-0.685791016,-0.634887695,11.6577148,-101.745605,58.2885742
570,2850000,3150000,570,-1566,-5605,-5231,162,-1633,947,-0.191162109,-0.684204102,-0.638549805,9.88769531,-99.6704102,57.800293
571,2855008,3155008,571,-1720,-5613,-5286,137,-1613,927,-0.209960938,-0.685180664,-0.645263672,8.36181641,-98.449707,56.5795898
572,2860000,3160000,572,-1794,-5574,-5261,128,-1581,909,-0.218994141,-0.680419922,-0.642211914,7.8125,-96.496582,55.480957
573,2865008,3165008,573,-1831,-5468,-5209,129,-1535,892,-0.223510742,-0.667480469,-0.635864258,7.87353516,-93.6889648,54.4433594
574,2870000,3170000,574,-1913,-5424,-5118,120,-1493,863,-0.233520508,-0.662109375,-0.624755859,7.32421875,-91.1254883,52.6733398
575,2875008,3175008,575,-2011,-5460,-5060,101,-1427,832,-0.245483398,-0.666503906,-0.617675781,6.16455078,-87.097168,50.78125
576,2880000,3180000,576,-2136,-5514,-5095,74,-1389,794,-0.260742188,-0.673095703,-0.621948242,4.51660156,-84.777832,48.4619141
577,2885008,3185008,577,-2135,-5522,-5113,52,-1369,759,-0.260620117,-0.674072266,-0.624145508,3.17382812,-83.5571289,46.3256836
578,2890000,3190000,578,-2096,-5567,-5045,49,-1321,731,-0.255859375,-0.67956543,-0.615844727,2.99072266,-80.6274414,44.6166992
579,2895008,3195008,579,-2156,-5719,-4993,51,-1264,691,-0.263183594,-0.698120117,-0.60949707,3.11279297,-77.1484375,42.175293
580,2900000,3200000,580,-2208,-5895,-4984,39,-1212,644,-0.26953125,-0.719604492,-0.608398438,2.38037109,-73.9746094,39.3066406
581,2905008,3205008,581,-2239,-6032,-5043,51,-1169,598,-0.27331543,-0.736328125,-0.615600586,3.11279297,-71.3500977,36.4990234
582,2910000,3210000,582,-2211,-6036,-5026,81,-1132,570,-0.269897461,-0.736816406,-0.613525391,4.94384766,-69.0917969,34.7900391
583,2915008,3215008,583,-2308,-5979,-4934,95,-1093,545,-0.281738281,-0.729858398,-0.602294922,5.79833984,-66.7114258,33.2641602
584,2920000,3220000,584,-2534,-5970,-4988,115,-1058,490,-0.309326172,-0.728759766,-0.608886719,7.01904297,-64.5751953,29.9072266
585,2925008,3225008,585,-2585,-5937,-5010,126,-1033,426,-0.315551758,-0.724731445,-0.611572266,7.69042969,-63.0493164,26.0009766
586,2930000,3230000,586,-2578,-5858,-5077,125,-1016,369,-0.314697266,-0.715087891,-0.619750977,7.62939453,-62.0117188,22.5219727
587,2935008,3235008,587,-2572,-5754,-5059,127,-996,322,-0.313964844,-0.702392578,-0.617553711,7.75146484,-60.7910156,19.6533203
588,2940000,3240000,588,-2489,-5598,-4906,111,-959,298,-0.303833008,-0.683349609,-0.598876953,6.77490234,-58.5327148,18.1884766
589,2945008,3245008,589,-2465,-5520,-5034,82,-915,285,-0.30090332,-0.673828125,-0.614501953,5.00488281,-55.847168,17.3950195
590,2950000,3250000,590,-2560,-5574,-5098,80,-874,249,-0.3125,-0.680419922,-0.622314453,4.8828125,-53.3447266,15.1977539
591,2955008,3255008,591,-2617,-5640,-4964,66,-836,210,-0.319458008,-0.688476562,-0.605957031,4.02832031,-51.0253906,12.8173828
592,2960000,3260000,592,-2607,-5646,-5014,40,-807,195,-0.318237305,-0.689208984,-0.612060547,2.44140625,-49.2553711,11.9018555
593,2965008,3265008,593,-2545,-5645,-5020,50,-771,176,-0.310668945,-0.689086914,-0.612792969,3.05175781,-47.0581055,10.7421875
594,2970000,3270000,594,-2430,-5632,-4935,51,-709,161,-0.296630859,-0.6875,-0.602416992,3.11279297,-43.2739258,9.82666016
595,2975008,3275008,595,-2425,-5647,-4881,57,-630,152,-0.296020508,-0.689331055,-0.595825195,3.47900391,-38.4521484,9.27734375
596,2980000,3280000,596,-2460,-5711,-4818,58,-576,152,-0.300292969,-0.697143555,-0.588134766,3.54003906,-35.15625,9.27734375
597,2985008,3285008,597,-2614,-5675,-4941,51,-542,164,-0.319091797,-0.692749023,-0.603149414,3.11279297,-33.0810547,10.0097656
598,2990000,3290000,598,-2774,-5680,-4875,64,-511,158,-0.338623047,-0.693359375,-0.595092773,3.90625,-31.1889648,9.64355469
599,2995008,3295008,599,-2851,-5734,-4767,54,-497,158,-0.348022461,-0.699951172,-0.58190918,3.29589844,-30.3344727,9.64355469
600,3000000,3300000,600,-2895,-5745,-4810,60,-471,144,-0.353393555,-0.701293945,-0.587158203,3.66210938,-28.7475586,8.7890625
601,3005008,3305008,601,-2812,-5763,-4708,65,-434,145,-0.343261719,-0.703491211,-0.574707031,3.96728516,-26.4892578,8.85009766
602,3010000,3310000,602,-2919,-5703,-4745,49,-429,179,-0.356323242,-0.696166992,-0.579223633,2.99072266,-26.184082,10.925293
603,3015008,3315008,603,-3141,-5596,-4762,48,-419,173,-0.383422852,-0.683105469,-0.581298828,2.9296875,-25.5737305,10.559082
604,3020000,3320000,604,-3232,-5559,-4756,42,-399,148,-0.39453125,-0.678588867,-0.580566406,2.56347656,-24.3530273,9.03320312
605,3025008,3325008,605,-3311,-5522,-4884,26,-402,140,-0.404174805,-0.674072266,-0.596191406,1.58691406,-24.5361328,8.54492188
606,3030000,3330000,606,-3323,-5481,-4893,20,-414,135,-0.405639648,-0.669067383,-0.597290039,1.22070312,-25.2685547,8.23974609
607,3035008,3335008,607,-3299,-5494,-4803,10,-411,125,-0.402709961,-0.670654297,-0.586303711,0.610351562,-25.0854492,7.62939453
608,3040000,3340000,608,-3168,-5532,-4775,-2,-401,115,-0.38671875,-0.675292969,-0.582885742,-0.122070312,-24.4750977,7.01904297
609,3045008,3345008,609,-3011,-5598,-4750,-28,-379,124,-0.367553711,-0.683349609,-0.579833984,-1.70898438,-23.1323242,7.56835938
610,3050000,3350000,610,-3111,-5702,-4842,-34,-349,127,-0.379760742,-0.696044922,-0.591064453,-2.07519531,-21.3012695,7.75146484
611,3055008,3355008,611,-3196,-5795,-4879,-17,-330,117,-0.390136719,-0.707397461,-0.595581055,-1.03759766,-20.1416016,7.14111328
612,3060000,3360000,612,-3184,-5790,-4854,-24,-319,122,-0.388671875,-0.706787109,-0.592529297,-1.46484375,-19.4702148,7.44628906
613,3065008,3365008,613,-3208,-5752,-4853,-28,-312,124,-0.391601562,-0.702148438,-0.592407227,-1.70898438,-19.0429688,7.56835938
614,3070000,3370000,614,-3165,-5758,-4801,-44,-287,123,-0.386352539,-0.702880859,-0.58605957,-2.68554688,-17.5170898,7.50732422
615,3075008,3375008,615,-3201,-5839,-4869,-47,-270,121,-0.39074707,-0.712768555,-0.594360352,-2.86865234,-16.4794922,7.38525391
616,3080000,3380000,616,-3181,-5893,-4792,-38,-259,118,-0.388305664,-0.719360352,-0.584960938,-2.31933594,-15.8081055,7.20214844
617,3085008,3385008,617,-3088,-5868,-4764,-37,-231,118,-0.376953125,-0.716308594,-0.581542969,-2.25830078,-14.0991211,7.20214844
618,3090000,3390000,618,-3147,-5859,-4776,-26,-211,106,-0.384155273,-0.715209961,-0.583007812,-1.58691406,-12.878418,6.46972656
619,3095008,3395008,619,-3166,-5875,-4690,-19,-192,86,-0.386474609,-0.717163086,-0.572509766,-1.15966797,-11.71875,5.24902344
620,3100000,3400000,620,-3142,-5931,-4710,-19,-166,70,-0.383544922,-0.723999023,-0.574951172,-1.15966797,-10.1318359,4.27246094
621,3105008,3405008,621,-3158,-5982,-4732,-16,-146,61,-0.385498047,-0.730224609,-0.577636719,-0.9765625,-8.91113281,3.72314453
622,3110000,3410000,622,-3166,-5983,-4729,-13,-129,52,-0.386474609,-0.73034668,-0.577270508,-0.793457031,-7.87353516,3.17382812
623,3115008,3415008,623,-3169,-5953,-4701,-13,-111,40,-0.38684082,-0.72668457,-0.573852539,-0.793457031,-6.77490234,2.44140625
624,3120000,3420000,624,-3179,-5932,-4707,-18,-90,25,-0.388061523,-0.724121094,-0.574584961,-1.09863281,-5.49316406,1.52587891
625,3125008,3425008,625,-3175,-5928,-4745,-23,-70,5,-0.387573242,-0.723632812,-0.579223633,-1.40380859,-4.27246094,0.305175781
626,3130000,3430000,626,-3141,-5932,-4765,-27,-50,-17,-0.383422852,-0.724121094,-0.581665039,-1.64794922,-3.05175781,-1.03759766
627,3135008,3435008,627,-3100,-5953,-4783,-31,-28,-36,-0.378417969,-0.72668457,-0.583862305,-1.89208984,-1.70898438,-2.19726562
628,3140000,3440000,628,-3077,-5972,-4812,-31,-4,-54,-0.375610352,-0.729003906,-0.587402344,-1.89208984,-0.244140625,-3.29589844
629,3145008,3445008,629,-3059,-5968,-4825,-28,23,-71,-0.373413086,-0.728515625,-0.588989258,-1.70898438,1.40380859,-4.33349609
630,3150000,3450000,630,-3053,-5948,-4830,-24,52,-90,-0.372680664,-0.726074219,-0.589599609,-1.46484375,3.17382812,-5.49316406
631,3155008,3455008,631,-3075,-5944,-4837,-22,81,-109,-0.375366211,-0.725585938,-0.590454102,-1.34277344,4.94384766,-6.65283203
632,3160000,3460000,632,-3075,-5966,-4847,-20,109,-127,-0.375366211,-0.728271484,-0.591674805,-1.22070312,6.65283203,-7.75146484
633,3165008,3465008,633,-3038,-5988,-4841,-17,139,-143,-0.370849609,-0.730957031,-0.590942383,-1.03759766,8.48388672,-8.72802734
634,3170000,3470000,634,-3008,-5990,-4814,-13,174,-158,-0.3671875,-0.731201172,-0.587646484,-0.793457031,10.6201172,-9.64355469
635,3175008,3475008,635,-2987,-5983,-4793,-10,213,-174,-0.364624023,-0.73034668,-0.585083008,-0.610351562,13.0004883,-10.6201172
636,3180000,3480000,636,-2964,-5980,-4776,-9,257,-190,-0.361816406,-0.729980469,-0.583007812,-0.549316406,15.6860352,-11.5966797
637,3185008,3485008,637,-2954,-5972,-4756,-11,306,-207,-0.360595703,-0.729003906,-0.580566406,-0.671386719,18.6767578,-12.6342773
638,3190000,3490000,638,-2961,-5979,-4757,-13,360,-222,-0.361450195,-0.729858398,-0.580688477,-0.793457031,21.9726562,-13.5498047
639,3195008,3495008,639,-2977,-5998,-4769,-16,417,-236,-0.36340332,-0.732177734,-0.58215332,-0.9765625,25.4516602,-14.4042969
640,3200000,3500000,640,-2980,-5988,-4764,-17,477,-254,-0.363769531,-0.730957031,-0.581542969,-1.03759766,29.1137695,-15.5029297
641,3205008,3505008,641,-2944,-5957,-4754,-20,542,-275,-0.359375,-0.727172852,-0.580322266,-1.22070312,33.0810547,-16.784668
642,3210000,3510000,642,-2894,-5924,-4740,-23,611,-296,-0.353271484,-0.723144531,-0.578613281,-1.40380859,37.2924805,-18.0664062
643,3215008,3515008,643,-2836,-5884,-4666,-24,683,-320,-0.346191406,-0.718261719,-0.569580078,-1.46484375,41.6870117,-19.53125
644,3220000,3520000,644,-2763,-5841,-4592,-24,763,-350,-0.337280273,-0.713012695,-0.560546875,-1.46484375,46.5698242,-21.3623047
645,3225008,3525008,645,-2701,-5782,-4565,-22,846,-386,-0.329711914,-0.705810547,-0.557250977,-1.34277344,51.6357422,-23.5595703
646,3230000,3530000,646,-2675,-5697,-4538,-21,928,-427,-0.326538086,-0.69543457,-0.553955078,-1.28173828,56.640625,-26.0620117
647,3235008,3535008,647,-2714,-5626,-4546,-30,1008,-469,-0.331298828,-0.686767578,-0.554931641,-1.83105469,61.5234375,-28.6254883
648,3240000,3540000,648,-2830,-5585,-4577,-42,1087,-514,-0.345458984,-0.681762695,-0.55871582,-2.56347656,66.3452148,-31.3720703
649,3245008,3545008,649,-2984,-5579,-4583,-58,1152,-558,-0.364257812,-0.681030273,-0.559448242,-3.54003906,70.3125,-34.0576172
650,3250000,3550000,650,-3129,-5604,-4599,-74,1200,-596,-0.381958008,-0.684082031,-0.561401367,-4.51660156,73.2421875,-36.3769531
651,3255008,3555008,651,-3222,-5599,-4631,-85,1236,-630,-0.393310547,-0.68347168,-0.565307617,-5.18798828,75.4394531,-38.4521484
652,3260000,3560000,652,-3254,-5559,-4644,-98,1264,-661,-0.397216797,-0.678588867,-0.566894531,-5.98144531,77.1484375,-40.3442383
653,3265008,3565008,653,-3259,-5503,-4635,-113,1296,-694,-0.397827148,-0.67175293,-0.565795898,-6.89697266,79.1015625,-42.3583984
654,3270000,3570000,654,-3217,-5468,-4624,-136,1337,-730,-0.392700195,-0.667480469,-0.564453125,-8.30078125,81.6040039,-44.5556641
655,3275008,3575008,655,-3144,-5492,-4679,-165,1391,-757,-0.383789062,-0.670410156,-0.571166992,-10.0708008,84.8999023,-46.2036133
656,3280000,3580000,656,-3074,-5570,-4834,-189,1442,-771,-0.375244141,-0.679931641,-0.590087891,-11.5356445,88.0126953,-47.0581055
657,3285008,3585008,657,-3005,-5677,-4975,-200,1487,-776,-0.366821289,-0.692993164,-0.607299805,-12.2070312,90.7592773,-47.3632812
658,3290000,3590000,658,-2923,-5785,-5036,-199,1531,-781,-0.356811523,-0.706176758,-0.614746094,-12.1459961,93.4448242,-47.668457
659,3295008,3595008,659,-2789,-5900,-5096,-193,1582,-786,-0.340454102,-0.720214844,-0.622070312,-11.7797852,96.5576172,-47.9736328
660,3300000,3600000,660,-2628,-6043,-5188,-178,1642,-783,-0.320800781,-0.737670898,-0.633300781,-10.8642578,100.219727,-47.7905273
661,3305008,3605008,661,-2506,-6177,-5282,-153,1696,-772,-0.305908203,-0.75402832,-0.644775391,-9.33837891,103.515625,-47.1191406
662,3310000,3610000,662,-2410,-6276,-5362,-113,1745,-766,-0.294189453,-0.766113281,-0.654541016,-6.89697266,106.506348,-46.7529297
663,3315008,3615008,663,-2321,-6342,-5391,-60,1789,-769,-0.283325195,-0.774169922,-0.658081055,-3.66210938,109.191895,-46.9360352
664,3320000,3620000,664,-2218,-6348,-5266,-14,1832,-772,-0.270751953,-0.774902344,-0.642822266,-0.854492188,111.816406,-47.1191406
665,3325008,3625008,665,-2164,-6334,-5152,12,1880,-775,-0.264160156,-0.773193359,-0.62890625,0.732421875,114.746094,-47.3022461
666,3330000,3630000,666,-2222,-6333,-5168,25,1906,-784,-0.271240234,-0.773071289,-0.630859375,1.52587891,116.333008,-47.8515625
667,3335008,3635008,667,-2323,-6361,-5195,34,1903,-803,-0.283569336,-0.776489258,-0.634155273,2.07519531,116.149902,-49.0112305
668,3340000,3640000,668,-2393,-6407,-5204,45,1884,-829,-0.292114258,-0.782104492,-0.635253906,2.74658203,114.990234,-50.5981445
669,3345008,3645008,669,-2403,-6386,-5166,40,1854,-854,-0.293334961,-0.779541016,-0.630615234,2.44140625,113.15918,-52.1240234
670,3350000,3650000,670,-2319,-6306,-5189,17,1838,-890,-0.283081055,-0.769775391,-0.633422852,1.03759766,112.182617,-54.3212891
671,3355008,3655008,671,-2187,-6188,-5351,-6,1836,-939,-0.266967773,-0.755371094,-0.653198242,-0.366210938,112.060547,-57.3120117
672,3360000,3660000,672,-2034,-6057,-5456,-33,1813,-997,-0.248291016,-0.739379883,-0.666015625,-2.01416016,110.656738,-60.8520508
673,3365008,3665008,673,-1798,-5969,-5502,-74,1793,-1056,-0.219482422,-0.728637695,-0.671630859,-4.51660156,109.436035,-64.453125
674,3370000,3670000,674,-1489,-5962,-5635,-101,1806,-1116,-0.181762695,-0.727783203,-0.687866211,-6.16455078,110.229492,-68.1152344
675,3375008,3675008,675,-1151,-5982,-5765,-98,1846,-1163,-0.14050293,-0.730224609,-0.703735352,-5.98144531,112.670898,-70.9838867
676,3380000,3680000,676,-824,-5978,-5846,-97,1897,-1184,-0.100585938,-0.729736328,-0.713623047,-5.92041016,115.783691,-72.265625
677,3385008,3685008,677,-566,-6006,-5994,-93,1953,-1190,-0.0690917969,-0.733154297,-0.731689453,-5.67626953,119.20166,-72.6318359
678,3390000,3690000,678,-337,-6056,-6092,-58,2026,-1185,-0.0411376953,-0.739257812,-0.743652344,-3.54003906,123.657227,-72.3266602
679,3395008,3695008,679,-141,-6120,-6070,-24,2105,-1175,-0.0172119141,-0.747070312,-0.740966797,-1.46484375,128.479004,-71.7163086
680,3400000,3700000,680,-43,-6227,-6179,-5,2177,-1152,-0.00524902344,-0.760131836,-0.754272461,-0.305175781,132.873535,-70.3125
681,3405008,3705008,681,4,-6360,-6285,28,2231,-1105,0.00048828125,-0.776367188,-0.767211914,1.70898438,136.169434,-67.4438477
682,3410000,3710000,682,-56,-6475,-6222,68,2257,-1043,-0.0068359375,-0.790405273,-0.759521484,4.15039062,137.756348,-63.659668
683,3415008,3715008,683,-137,-6570,-6129,110,2250,-985,-0.0167236328,-0.802001953,-0.748168945,6.71386719,137.329102,-60.1196289
684,3420000,3720000,684,-165,-6639,-6046,171,2236,-952,-0.0201416016,-0.810424805,-0.738037109,10.4370117,136.474609,-58.1054688
685,3425008,3725008,685,-189,-6601,-5959,232,2234,-948,-0.0230712891,-0.805786133,-0.727416992,14.1601562,136.352539,-57.8613281
686,3430000,3730000,686,-208,-6437,-5875,263,2225,-965,-0.025390625,-0.785766602,-0.717163086,16.0522461,135.803223,-58.8989258
687,3435008,3735008,687,-224,-6242,-5732,245,2193,-996,-0.02734375,-0.761962891,-0.699707031,14.9536133,133.850098,-60.7910156
688,3440000,3740000,688,-214,-6046,-5602,201,2134,-1033,-0.0261230469,-0.738037109,-0.683837891,12.2680664,130.249023,-63.0493164
689,3445008,3745008,689,-185,-5838,-5528,158,2047,-1073,-0.0225830078,-0.712646484,-0.674804688,9.64355469,124.938965,-65.4907227
690,3450000,3750000,690,-125,-5676,-5588,110,1943,-1128,-0.0152587891,-0.692871094,-0.682128906,6.71386719,118.591309,-68.8476562
691,3455008,3755008,691,109,-5523,-5659,57,1847,-1192,0.0133056641,-0.674194336,-0.690795898,3.47900391,112.731934,-72.7539062
692,3460000,3760000,692,515,-5373,-5689,-7,1775,-1248,0.0628662109,-0.655883789,-0.694458008,-0.427246094,108.337402,-76.171875
693,3465008,3765008,693,1025,-5298,-5789,-65,1706,-1278,0.12512207,-0.646728516,-0.706665039,-3.96728516,104.125977,-78.0029297
694,3470000,3770000,694,1581,-5292,-5818,-89,1667,-1275,0.192993164,-0.645996094,-0.710205078,-5.43212891,101.745605,-77.8198242
695,3475008,3775008,695,2073,-5372,-5840,-92,1669,-1232,0.253051758,-0.655761719,-0.712890625,-5.61523438,101.867676,-75.1953125
696,3480000,3780000,696,2429,-5511,-5831,-97,1690,-1149,0.296508789,-0.672729492,-0.711791992,-5.92041016,103.149414,-70.1293945
697,3485008,3785008,697,2615,-5730,-5799,-115,1730,-1047,0.319213867,-0.699462891,-0.707885742,-7.01904297,105.59082,-63.9038086
698,3490000,3790000,698,2606,-6057,-5900,-119,1786,-939,0.318115234,-0.739379883,-0.720214844,-7.26318359,109.008789,-57.3120117
699,3495008,3795008,699,2460,-6450,-5986,-66,1850,-843,0.300292969,-0.787353516,-0.730712891,-4.02832031,112.915039,-51.4526367
700,3500000,3800000,700,2273,-6814,-5889,28,1885,-751,0.27746582,-0.831787109,-0.71887207,1.70898438,115.05127,-45.8374023
701,3505008,3805008,701,2001,-7044,-5691,139,1871,-667,0.244262695,-0.859863281,-0.694702148,8.48388672,114.196777,-40.7104492
702,3510000,3810000,702,1754,-7150,-5486,254,1814,-624,0.214111328,-0.872802734,-0.669677734,15.5029297,110.717773,-38.0859375
703,3515008,3815008,703,1649,-7130,-5375,372,1707,-605,0.201293945,-0.870361328,-0.65612793,22.7050781,104.187012,-36.9262695
704,3520000,3820000,704,1480,-6904,-5282,508,1557,-576,0.180664062,-0.842773438,-0.644775391,31.0058594,95.0317383,-35.15625
705,3525008,3825008,705,1321,-6537,-5088,613,1385,-565,0.161254883,-0.797973633,-0.62109375,37.4145508,84.5336914,-34.4848633
706,3530000,3830000,706,1412,-6154,-4927,649,1213,-578,0.172363281,-0.751220703,-0.60144043,39.6118164,74.0356445,-35.2783203
707,3535008,3835008,707,1593,-5725,-4811,641,1068,-585,0.194458008,-0.698852539,-0.587280273,39.1235352,65.1855469,-35.7055664
708,3540000,3840000,708,1810,-5250,-4732,569,950,-609,0.220947266,-0.640869141,-0.577636719,34.7290039,57.9833984,-37.1704102
709,3545008,3845008,709,2137,-4859,-4717,425,852,-662,0.260864258,-0.593139648,-0.575805664,25.9399414,52.0019531,-40.4052734
710,3550000,3850000,710,2537,-4631,-4729,239,786,-728,0.309692383,-0.565307617,-0.577270508,14.5874023,47.9736328,-44.4335938
711,3555008,3855008,711,2967,-4588,-4837,51,761,-776,0.362182617,-0.560058594,-0.590454102,3.11279297,46.4477539,-47.3632812
712,3560000,3860000,712,3354,-4732,-4977,-105,777,-802,0.409423828,-0.577636719,-0.607543945,-6.40869141,47.4243164,-48.9501953
713,3565008,3865008,713,3698,-5039,-5158,-248,839,-821,0.451416016,-0.615112305,-0.629638672,-15.1367188,51.2084961,-50.1098633
714,3570000,3870000,714,3931,-5446,-5377,-353,916,-808,0.479858398,-0.664794922,-0.65637207,-21.5454102,55.9082031,-49.3164062
715,3575008,3875008,715,4010,-5910,-5550,-391,997,-765,0.489501953,-0.721435547,-0.677490234,-23.8647461,60.8520508,-46.6918945
716,3580000,3880000,716,3840,-6373,-5672,-340,1084,-680,0.46875,-0.777954102,-0.692382812,-20.7519531,66.1621094,-41.5039062
717,3585008,3885008,717,3411,-6721,-5700,-199,1150,-564,0.416381836,-0.82043457,-0.695800781,-12.1459961,70.1904297,-34.4238281
718,3590000,3890000,718,3049,-7016,-5643,-51,1180,-480,0.372192383,-0.856445312,-0.688842773,-3.11279297,72.0214844,-29.296875
719,3595008,3895008,719,2863,-7336,-5633,87,1171,-426,0.349487305,-0.895507812,-0.68762207,5.31005859,71.472168,-26.0009766
720,3600000,3900000,720,2831,-7624,-5562,245,1153,-388,0.345581055,-0.930664062,-0.678955078,14.9536133,70.3735352,-23.6816406
721,3605008,3905008,721,2866,-7789,-5247,401,1149,-356,0.349853516,-0.950805664,-0.64050293,24.4750977,70.1293945,-21.7285156
722,3610000,3910000,722,2900,-7760,-4819,513,1158,-333,0.354003906,-0.947265625,-0.588256836,31.3110352,70.6787109,-20.324707
723,3615008,3915008,723,3030,-7571,-4415,577,1163,-357,0.369873047,-0.924194336,-0.53894043,35.2172852,70.9838867,-21.7895508
724,3620000,3920000,724,3241,-7220,-4090,605,1159,-426,0.395629883,-0.881347656,-0.499267578,36.9262695,70.7397461,-26.0009766
725,3625008,3925008,725,3444,-6688,-3872,601,1154,-532,0.420410156,-0.81640625,-0.47265625,36.6821289,70.4345703,-32.4707031
726,3630000,3930000,726,3595,-6074,-3795,561,1142,-652,0.438842773,-0.741455078,-0.463256836,34.2407227,69.7021484,-39.7949219
727,3635008,3935008,727,3661,-5478,-3885,494,1119,-758,0.446899414,-0.668701172,-0.474243164,30.1513672,68.2983398,-46.2646484
728,3640000,3940000,728,3634,-4953,-4012,411,1089,-847,0.443603516,-0.604614258,-0.489746094,25.0854492,66.4672852,-51.6967773
729,3645008,3945008,729,3714,-4563,-4055,294,1043,-928,0.453369141,-0.557006836,-0.494995117,17.9443359,63.659668,-56.640625
730,3650000,3950000,730,3909,-4379,-4140,145,994,-979,0.477172852,-0.534545898,-0.505371094,8.85009766,60.6689453,-59.753418
731,3655008,3955008,731,4047,-4381,-4307,8,970,-985,0.494018555,-0.534790039,-0.525756836,0.48828125,59.2041016,-60.1196289
732,3660000,3960000,732,4186,-4509,-4395,-106,954,-960,0.510986328,-0.550415039,-0.536499023,-6.46972656,58.2275391,-58.59375
733,3665008,3965008,733,4363,-4739,-4464,-198,928,-889,0.532592773,-0.578491211,-0.544921875,-12.0849609,56.640625,-54.2602539
734,3670000,3970000,734,4498,-5071,-4486,-243,911,-794,0.549072266,-0.619018555,-0.547607422,-14.831543,55.6030273,-48.4619141
735,3675008,3975008,735,4559,-5477,-4433,-242,918,-708,0.556518555,-0.668579102,-0.541137695,-14.7705078,56.0302734,-43.2128906
736,3680000,3980000,736,4687,-5998,-4428,-205,929,-610,0.572143555,-0.732177734,-0.540527344,-12.512207,56.7016602,-37.2314453
737,3685008,3985008,737,4731,-6502,-4392,-135,939,-485,0.577514648,-0.793701172,-0.536132812,-8.23974609,57.3120117,-29.6020508
738,3690000,3990000,738,4592,-6833,-4280,-53,968,-382,0.560546875,-0.834106445,-0.522460938,-3.23486328,59.0820312,-23.3154297
739,3695008,3995008,739,4505,-7100,-4168,42,1022,-327,0.549926758,-0.866699219,-0.508789062,2.56347656,62.3779297,-19.9584961
740,3700000,4000000,740,4449,-7226,-3942,145,1081,-305,0.54309082,-0.882080078,-0.481201172,8.85009766,65.9790039,-18.6157227
741,3705008,4005008,741,4444,-7148,-3620,228,1130,-321,0.542480469,-0.872558594,-0.441894531,13.9160156,68.9697266,-19.5922852
742,3710000,4010000,742,4366,-6876,-3420,288,1159,-357,0.532958984,-0.839355469,-0.417480469,17.578125,70.7397461,-21.7895508
743,3715008,4015008,743,4162,-6458,-3314,334,1128,-418,0.508056641,-0.788330078,-0.404541016,20.3857422,68.8476562,-25.5126953
744,3720000,4020000,744,4050,-6021,-3226,348,1027,-491,0.494384766,-0.734985352,-0.393798828,21.2402344,62.6831055,-29.9682617
745,3725008,4025008,745,3999,-5536,-3165,323,887,-547,0.48815918,-0.67578125,-0.386352539,19.7143555,54.1381836,-33.3862305
746,3730000,4030000,746,4014,-5020,-3144,257,748,-593,0.489990234,-0.612792969,-0.383789062,15.6860352,45.6542969,-36.1938477
747,3735008,4035008,747,4106,-4566,-3184,154,634,-620,0.501220703,-0.557373047,-0.388671875,9.39941406,38.6962891,-37.8417969
748,3740000,4040000,748,4242,-4227,-3257,24,535,-621,0.517822266,-0.515991211,-0.397583008,1.46484375,32.6538086,-37.902832
749,3745008,4045008,749,4405,-4082,-3385,-106,463,-612,0.537719727,-0.498291016,-0.413208008,-6.46972656,28.2592773,-37.3535156
750,3750000,4050000,750,4647,-4185,-3500,-211,415,-594,0.567260742,-0.510864258,-0.427246094,-12.878418,25.3295898,-36.2548828
751,3755008,4055008,751,4921,-4421,-3490,-292,380,-543,0.600708008,-0.539672852,-0.426025391,-17.8222656,23.1933594,-33.1420898
752,3760000,4060000,752,5076,-4686,-3455,-355,362,-464,0.619628906,-0.572021484,-0.42175293,-21.6674805,22.0947266,-28.3203125
753,3765008,4065008,753,5112,-4998,-3487,-373,361,-390,0.624023438,-0.610107422,-0.42565918,-22.7661133,22.0336914,-23.8037109
754,3770000,4070000,754,5046,-5318,-3570,-335,370,-331,0.615966797,-0.649169922,-0.435791016,-20.4467773,22.5830078,-20.2026367
755,3775008,4075008,755,4923,-5581,-3613,-263,379,-285,0.600952148,-0.681274414,-0.441040039,-16.0522461,23.1323242,-17.3950195
756,3780000,4080000,756,4799,-5788,-3623,-191,385,-259,0.58581543,-0.706542969,-0.442260742,-11.6577148,23.4985352,-15.8081055
757,3785008,4085008,757,4715,-5949,-3665,-128,389,-247,0.575561523,-0.726196289,-0.447387695,-7.8125,23.7426758,-15.0756836
758,3790000,4090000,758,4674,-6042,-3703,-62,392,-248,0.570556641,-0.737548828,-0.452026367,-3.78417969,23.9257812,-15.1367188
759,3795008,4095008,759,4675,-6089,-3708,-5,382,-264,0.570678711,-0.743286133,-0.452636719,-0.305175781,23.3154297,-16.1132812
760,3800000,4100000,760,4644,-6024,-3727,38,356,-285,0.566894531,-0.735351562,-0.454956055,2.31933594,21.7285156,-17.3950195
761,3805008,4105008,761,4583,-5805,-3802,77,333,-306,0.559448242,-0.708618164,-0.464111328,4.69970703,20.324707,-18.6767578
762,3810000,4110000,762,4533,-5546,-3852,108,310,-333,0.553344727,-0.677001953,-0.470214844,6.59179688,18.9208984,-20.324707
763,3815008,4115008,763,4526,-5333,-3816,117,285,-365,0.552490234,-0.651000977,-0.465820312,7.14111328,17.3950195,-22.277832
764,3820000,4120000,764,4567,-5164,-3761,96,267,-394,0.557495117,-0.630371094,-0.459106445,5.859375,16.2963867,-24.0478516
765,3825008,4125008,765,4569,-5025,-3774,60,255,-418,0.557739258,-0.61340332,-0.460693359,3.66210938,15.5639648,-25.5126953
766,3830000,4130000,766,4573,-4978,-3797,24,241,-438,0.558227539,-0.607666016,-0.463500977,1.46484375,14.7094727,-26.7333984
767,3835008,4135008,767,4638,-5010,-3812,-10,230,-449,0.566162109,-0.611572266,-0.465332031,-0.610351562,14.0380859,-27.4047852
768,3840000,4140000,768,4670,-5034,-3787,-37,236,-444,0.570068359,-0.614501953,-0.462280273,-2.25830078,14.4042969,-27.0996094
769,3845008,4145008,769,4651,-5064,-3737,-61,256,-427,0.567749023,-0.618164062,-0.456176758,-3.72314453,15.625,-26.0620117
770,3850000,4150000,770,4638,-5140,-3668,-78,286,-409,0.566162109,-0.627441406,-0.447753906,-4.76074219,17.4560547,-24.9633789
771,3855008,4155008,771,4605,-5263,-3555,-88,320,-389,0.562133789,-0.642456055,-0.433959961,-5.37109375,19.53125,-23.7426758
772,3860000,4160000,772,4546,-5414,-3533,-88,327,-362,0.554931641,-0.660888672,-0.431274414,-5.37109375,19.9584961,-22.0947266
773,3865008,4165008,773,4434,-5493,-3535,-71,298,-338,0.541259766,-0.670532227,-0.431518555,-4.33349609,18.1884766,-20.6298828
774,3870000,4170000,774,4344,-5446,-3491,-52,265,-322,0.530273438,-0.664794922,-0.426147461,-3.17382812,16.1743164,-19.6533203
775,3875008,4175008,775,4341,-5332,-3444,-45,250,-307,0.529907227,-0.650878906,-0.420410156,-2.74658203,15.2587891,-18.737793
776,3880000,4180000,776,4389,-5245,-3387,-51,242,-289,0.535766602,-0.640258789,-0.413452148,-3.11279297,14.7705078,-17.6391602
777,3885008,4185008,777,4496,-5236,-3307,-58,233,-265,0.548828125,-0.639160156,-0.403686523,-3.54003906,14.2211914,-16.1743164
778,3890000,4190000,778,4588,-5267,-3209,-54,236,-237,0.560058594,-0.642944336,-0.391723633,-3.29589844,14.4042969,-14.465332
779,3895008,4195008,779,4609,-5268,-3117,-34,250,-214,0.56262207,-0.643066406,-0.380493164,-2.07519531,15.2587891,-13.0615234
780,3900000,4200000,780,4607,-5239,-3044,-6,257,-200,0.56237793,-0.639526367,-0.371582031,-0.366210938,15.6860352,-12.2070312
781,3905008,4205008,781,4611,-5205,-2972,21,250,-194,0.562866211,-0.635375977,-0.362792969,1.28173828,15.2587891,-11.8408203
782,3910000,4210000,782,4630,-5134,-2909,42,236,-189,0.565185547,-0.626708984,-0.355102539,2.56347656,14.4042969,-11.5356445
783,3915008,4215008,783,4649,-5040,-2867,50,216,-182,0.567504883,-0.615234375,-0.349975586,3.05175781,13.1835938,-11.1083984
784,3920000,4220000,784,4666,-4980,-2853,47,190,-170,0.569580078,-0.607910156,-0.348266602,2.86865234,11.5966797,-10.3759766
785,3925008,4225008,785,4684,-4972,-2875,41,163,-153,0.571777344,-0.606933594,-0.350952148,2.50244141,9.94873047,-9.33837891
786,3930000,4230000,786,4690,-5026,-2911,39,138,-131,0.572509766,-0.613525391,-0.35534668,2.38037109,8.42285156,-7.99560547
787,3935008,4235008,787,4686,-5131,-2956,40,114,-108,0.572021484,-0.626342773,-0.360839844,2.44140625,6.95800781,-6.59179688
788,3940000,4240000,788,4684,-5241,-3019,41,90,-84,0.571777344,-0.639770508,-0.368530273,2.50244141,5.49316406,-5.12695312
789,3945008,4245008,789,4693,-5343,-3086,41,69,-61,0.572875977,-0.65222168,-0.376708984,2.50244141,4.21142578,-3.72314453
790,3950000,4250000,790,4707,-5412,-3145,37,50,-41,0.574584961,-0.660644531,-0.383911133,2.25830078,3.05175781,-2.50244141
791,3955008,4255008,791,4713,-5445,-3209,30,32,-23,0.575317383,-0.664672852,-0.391723633,1.83105469,1.953125,-1.40380859
792,3960000,4260000,792,4706,-5453,-3274,25,14,-7,0.574462891,-0.665649414,-0.399658203,1.52587891,0.854492188,-0.427246094
793,3965008,4265008,793,4713,-5442,-3310,14,-5,8,0.575317383,-0.664306641,-0.404052734,0.854492188,-0.305175781,0.48828125
794,3970000,4270000,794,4732,-5453,-3336,-6,-23,24,0.577636719,-0.665649414,-0.407226562,-0.366210938,-1.40380859,1.46484375
795,3975008,4275008,795,4765,-5488,-3366,-28,-36,41,0.581665039,-0.669921875,-0.410888672,-1.70898438,-2.19726562,2.50244141
796,3980000,4280000,796,4811,-5516,-3377,-44,-44,58,0.587280273,-0.673339844,-0.412231445,-2.68554688,-2.68554688,3.54003906
797,3985008,4285008,797,4848,-5544,-3368,-53,-47,73,0.591796875,-0.676757812,-0.411132812,-3.23486328,-2.86865234,4.45556641
798,3990000,4290000,798,4873,-5575,-3360,-58,-50,84,0.594848633,-0.680541992,-0.41015625,-3.54003906,-3.05175781,5.12695312
799,3995008,4295008,799,4891,-5585,-3338,-58,-54,94,0.597045898,-0.681762695,-0.407470703,-3.54003906,-3.29589844,5.73730469
800,4000000,4300000,800,4903,-5569,-3281,-58,-58,104,0.598510742,-0.67980957,-0.400512695,-3.54003906,-3.54003906,6.34765625
801,4005008,4305008,801,4909,-5536,-3204,-61,-59,113,0.599243164,-0.67578125,-0.391113281,-3.72314453,-3.60107422,6.89697266
802,4010000,4310000,802,4916,-5500,-3141,-62,-59,122,0.600097656,-0.671386719,-0.383422852,-3.78417969,-3.60107422,7.44628906
803,4015008,4315008,803,4916,-5477,-3090,-62,-64,135,0.600097656,-0.668579102,-0.377197266,-3.78417969,-3.90625,8.23974609
804,4020000,4320000,804,4891,-5470,-3047,-65,-74,150,0.597045898,-0.667724609,-0.371948242,-3.96728516,-4.51660156,9.15527344
805,4025008,4325008,805,4847,-5466,-3028,-73,-88,167,0.591674805,-0.667236328,-0.369628906,-4.45556641,-5.37109375,10.1928711
806,4030000,4330000,806,4803,-5435,-3012,-80,-110,183,0.586303711,-0.663452148,-0.367675781,-4.8828125,-6.71386719,11.1694336
807,4035008,4335008,807,4782,-5351,-2956,-85,-136,196,0.583740234,-0.653198242,-0.360839844,-5.18798828,-8.30078125,11.9628906
808,4040000,4340000,808,4795,-5234,-2881,-97,-160,207,0.585327148,-0.638916016,-0.35168457,-5.92041016,-9.765625,12.6342773
809,4045008,4345008,809,4819,-5133,-2831,-117,-186,223,0.588256836,-0.626586914,-0.345581055,-7.14111328,-11.3525391,13.6108398
810,4050000,4350000,810,4852,-5058,-2791,-140,-212,244,0.592285156,-0.617431641,-0.340698242,-8.54492188,-12.9394531,14.8925781
811,4055008,4355008,811,4882,-5001,-2749,-168,-239,272,0.595947266,-0.610473633,-0.335571289,-10.2539062,-14.5874023,16.6015625
812,4060000,4360000,812,4866,-4979,-2722,-197,-266,302,0.593994141,-0.607788086,-0.332275391,-12.0239258,-16.2353516,18.4326172
813,4065008,4365008,813,4861,-4983,-2709,-220,-291,331,0.593383789,-0.608276367,-0.330688477,-13.4277344,-17.7612305,20.2026367
814,4070000,4370000,814,4878,-4992,-2658,-240,-317,361,0.595458984,-0.609375,-0.324462891,-14.6484375,-19.3481445,22.0336914
815,4075008,4375008,815,4890,-5028,-2597,-263,-350,395,0.596923828,-0.613769531,-0.317016602,-16.0522461,-21.3623047,24.1088867
816,4080000,4380000,816,4911,-5075,-2560,-287,-402,440,0.599487305,-0.619506836,-0.3125,-17.5170898,-24.5361328,26.8554688
817,4085008,4385008,817,4896,-5118,-2561,-301,-456,485,0.59765625,-0.624755859,-0.31262207,-18.371582,-27.8320312,29.6020508
818,4090000,4390000,818,4851,-5164,-2583,-296,-506,519,0.592163086,-0.630371094,-0.315307617,-18.0664062,-30.8837891,31.6772461
819,4095008,4395008,819,4806,-5209,-2574,-283,-565,552,0.586669922,-0.635864258,-0.314208984,-17.2729492,-34.4848633,33.6914062
820,4100000,4400000,820,4795,-5250,-2609,-272,-639,586,0.585327148,-0.640869141,-0.318481445,-16.6015625,-39.0014648,35.7666016
821,4105008,4405008,821,4776,-5240,-2739,-258,-723,623,0.583007812,-0.639648438,-0.334350586,-15.7470703,-44.128418,38.0249023
822,4110000,4410000,822,4752,-5215,-2905,-234,-810,654,0.580078125,-0.63659668,-0.354614258,-14.2822266,-49.4384766,39.9169922
823,4115008,4415008,823,4827,-5232,-3059,-208,-896,681,0.589233398,-0.638671875,-0.373413086,-12.6953125,-54.6875,41.5649414
824,4120000,4420000,824,4934,-5246,-3207,-196,-968,716,0.602294922,-0.640380859,-0.391479492,-11.9628906,-59.0820312,43.7011719
825,4125008,4425008,825,4984,-5277,-3424,-190,-1016,758,0.608398438,-0.644165039,-0.41796875,-11.5966797,-62.0117188,46.2646484
826,4130000,4430000,826,4933,-5338,-3667,-168,-1056,802,0.602172852,-0.651611328,-0.447631836,-10.2539062,-64.453125,48.9501953
827,4135008,4435008,827,4817,-5433,-3859,-136,-1099,850,0.588012695,-0.663208008,-0.471069336,-8.30078125,-67.0776367,51.8798828
828,4140000,4440000,828,4688,-5580,-3978,-123,-1146,885,0.572265625,-0.681152344,-0.485595703,-7.50732422,-69.9462891,54.0161133
829,4145008,4445008,829,4592,-5740,-4094,-134,-1195,905,0.560546875,-0.700683594,-0.499755859,-8.17871094,-72.9370117,55.2368164
830,4150000,4450000,830,4578,-5880,-4255,-158,-1233,924,0.558837891,-0.717773438,-0.51940918,-9.64355469,-75.2563477,56.3964844
831,4155008,4455008,831,4512,-5955,-4365,-170,-1256,947,0.55078125,-0.726928711,-0.532836914,-10.3759766,-76.6601562,57.800293
832,4160000,4460000,832,4396,-5993,-4372,-176,-1268,959,0.536621094,-0.731567383,-0.533691406,-10.7421875,-77.3925781,58.5327148
833,4165008,4465008,833,4360,-6049,-4349,-200,-1274,955,0.532226562,-0.73840332,-0.530883789,-12.2070312,-77.7587891,58.2885742
834,4170000,4470000,834,4350,-6103,-4431,-222,-1293,967,0.531005859,-0.744995117,-0.540893555,-13.5498047,-78.918457,59.0209961
835,4175008,4475008,835,4266,-6107,-4515,-226,-1331,984,0.520751953,-0.745483398,-0.551147461,-13.7939453,-81.237793,60.0585938
836,4180000,4480000,836,4191,-6148,-4527,-224,-1370,995,0.51159668,-0.750488281,-0.552612305,-13.671875,-83.6181641,60.7299805
837,4185008,4485008,837,4117,-6258,-4534,-224,-1394,1011,0.502563477,-0.763916016,-0.553466797,-13.671875,-85.0830078,61.706543
838,4190000,4490000,838,3979,-6368,-4548,-215,-1415,1028,0.485717773,-0.77734375,-0.555175781,-13.1225586,-86.3647461,62.7441406
839,4195008,4495008,839,3847,-6471,-4574,-194,-1437,1043,0.469604492,-0.789916992,-0.558349609,-11.8408203,-87.7075195,63.659668
840,4200000,4500000,840,3680,-6546,-4684,-169,-1469,1051,0.44921875,-0.799072266,-0.571777344,-10.3149414,-89.6606445,64.1479492
841,4205008,4505008,841,3525,-6584,-4955,-145,-1520,1049,0.430297852,-0.803710938,-0.604858398,-8.85009766,-92.7734375,64.0258789
842,4210000,4510000,842,3437,-6495,-5178,-112,-1577,1048,0.419555664,-0.79284668,-0.632080078,-6.8359375,-96.2524414,63.9648438
843,4215008,4515008,843,3364,-6309,-5182,-84,-1624,1050,0.410644531,-0.770141602,-0.632568359,-5.12695312,-99.1210938,64.0869141
844,4220000,4520000,844,3255,-6143,-5289,-78,-1681,1061,0.397338867,-0.74987793,-0.645629883,-4.76074219,-102.600098,64.7583008
845,4225008,4525008,845,3071,-6018,-5605,-93,-1770,1091,0.37487793,-0.734619141,-0.684204102,-5.67626953,-108.032227,66.5893555
846,4230000,4530000,846,2826,-5907,-5873,-116,-1862,1132,0.344970703,-0.721069336,-0.716918945,-7.08007812,-113.647461,69.0917969
847,4235008,4535008,847,2579,-5809,-5998,-140,-1933,1166,0.314819336,-0.709106445,-0.732177734,-8.54492188,-117.980957,71.1669922
848,4240000,4540000,848,2374,-5772,-6054,-174,-1994,1200,0.289794922,-0.704589844,-0.739013672,-10.6201172,-121.704102,73.2421875
849,4245008,4545008,849,2150,-5784,-6144,-213,-2063,1220,0.262451172,-0.706054688,-0.75,-13.0004883,-125.915527,74.4628906
850,4250000,4550000,850,1968,-5836,-6248,-236,-2136,1212,0.240234375,-0.712402344,-0.762695312,-14.4042969,-130.371094,73.9746094
851,4255008,4555008,851,1845,-5897,-6342,-247,-2202,1203,0.225219727,-0.719848633,-0.774169922,-15.0756836,-134.399414,73.425293
852,4260000,4560000,852,1734,-5924,-6360,-257,-2242,1197,0.211669922,-0.723144531,-0.776367188,-15.6860352,-136.84082,73.059082
853,4265008,4565008,853,1613,-5924,-6272,-287,-2269,1205,0.196899414,-0.723144531,-0.765625,-17.5170898,-138.48877,73.5473633
854,4270000,4570000,854,1462,-5936,-6180,-325,-2297,1230,0.178466797,-0.724609375,-0.754394531,-19.8364258,-140.197754,75.0732422
855,4275008,4575008,855,1299,-5983,-6160,-348,-2322,1244,0.158569336,-0.73034668,-0.751953125,-21.2402344,-141.723633,75.9277344
856,4280000,4580000,856,1197,-6118,-6165,-357,-2358,1249,0.146118164,-0.746826172,-0.752563477,-21.7895508,-143.920898,76.2329102
857,4285008,4585008,857,1159,-6296,-6146,-341,-2392,1267,0.141479492,-0.768554688,-0.750244141,-20.8129883,-145.996094,77.331543
858,4290000,4590000,858,1068,-6436,-6114,-295,-2422,1301,0.130371094,-0.785644531,-0.746337891,-18.0053711,-147.827148,79.4067383
859,4295008,4595008,859,921,-6565,-6084,-243,-2455,1332,0.112426758,-0.801391602,-0.742675781,-14.831543,-149.841309,81.2988281
860,4300000,4600000,860,797,-6683,-6220,-181,-2509,1355,0.0972900391,-0.815795898,-0.759277344,-11.0473633,-153.137207,82.7026367
861,4305008,4605008,861,675,-6800,-6369,-56,-2598,1371,0.0823974609,-0.830078125,-0.77746582,-3.41796875,-158.569336,83.6791992
862,4310000,4610000,862,532,-6888,-6168,91,-2659,1385,0.0649414062,-0.840820312,-0.752929688,5.55419922,-162.29248,84.5336914
863,4315008,4615008,863,415,-6935,-5919,169,-2677,1399,0.0506591797,-0.846557617,-0.72253418,10.3149414,-163.391113,85.3881836
864,4320000,4620000,864,346,-6952,-5960,202,-2703,1416,0.0422363281,-0.848632812,-0.727539062,12.3291016,-164.978027,86.4257812
865,4325008,4625008,865,320,-6911,-6031,235,-2730,1437,0.0390625,-0.84362793,-0.736206055,14.3432617,-166.625977,87.7075195
866,4330000,4630000,866,306,-6817,-5992,258,-2743,1461,0.0373535156,-0.83215332,-0.731445312,15.7470703,-167.419434,89.1723633
867,4335008,4635008,867,259,-6724,-6002,269,-2744,1482,0.0316162109,-0.820800781,-0.732666016,16.418457,-167.480469,90.4541016
868,4340000,4640000,868,174,-6676,-6059,279,-2733,1489,0.0212402344,-0.814941406,-0.739624023,17.0288086,-166.809082,90.8813477
869,4345008,4645008,869,102,-6670,-5994,285,-2710,1476,0.0124511719,-0.814208984,-0.731689453,17.3950195,-165.405273,90.0878906
870,4350000,4650000,870,53,-6704,-5866,281,-2657,1451,0.00646972656,-0.818359375,-0.716064453,17.1508789,-162.17041,88.5620117
871,4355008,4655008,871,-50,-6744,-5879,278,-2598,1431,-0.00610351562,-0.823242188,-0.717651367,16.9677734,-158.569336,87.3413086
872,4360000,4660000,872,-241,-6721,-5926,273,-2559,1419,-0.0294189453,-0.82043457,-0.723388672,16.6625977,-156.188965,86.6088867
873,4365008,4665008,873,-527,-6636,-5901,278,-2516,1409,-0.0643310547,-0.810058594,-0.720336914,16.9677734,-153.564453,85.9985352
874,4370000,4670000,874,-827,-6551,-5837,294,-2459,1386,-0.100952148,-0.799682617,-0.712524414,17.9443359,-150.085449,84.5947266
875,4375008,4675008,875,-1033,-6490,-5794,299,-2395,1358,-0.126098633,-0.792236328,-0.707275391,18.2495117,-146.179199,82.8857422
876,4380000,4680000,876,-1221,-6448,-5850,301,-2338,1346,-0.149047852,-0.787109375,-0.714111328,18.371582,-142.700195,82.1533203
877,4385008,4685008,877,-1485,-6393,-5884,304,-2298,1350,-0.181274414,-0.780395508,-0.718261719,18.5546875,-140.258789,82.3974609
878,4390000,4690000,878,-1750,-6281,-5746,303,-2264,1357,-0.213623047,-0.766723633,-0.701416016,18.4936523,-138.183594,82.824707
879,4395008,4695008,879,-2051,-6185,-5615,285,-2228,1362,-0.250366211,-0.755004883,-0.685424805,17.3950195,-135.986328,83.1298828
880,4400000,4700000,880,-2330,-6204,-5676,274,-2200,1353,-0.284423828,-0.757324219,-0.692871094,16.7236328,-134.277344,82.5805664
881,4405008,4705008,881,-2518,-6240,-5714,293,-2194,1340,-0.307373047,-0.76171875,-0.697509766,17.8833008,-133.911133,81.7871094
882,4410000,4710000,882,-2575,-6263,-5615,306,-2202,1319,-0.314331055,-0.764526367,-0.685424805,18.6767578,-134.399414,80.5053711
883,4415008,4715008,883,-2479,-6276,-5511,316,-2197,1296,-0.302612305,-0.766113281,-0.672729492,19.2871094,-134.094238,79.1015625
884,4420000,4720000,884,-2399,-6281,-5454,339,-2167,1286,-0.29284668,-0.766723633,-0.665771484,20.690918,-132.263184,78.4912109
885,4425008,4725008,885,-2408,-6241,-5362,361,-2122,1270,-0.293945312,-0.76184082,-0.654541016,22.0336914,-129.516602,77.5146484
886,4430000,4730000,886,-2431,-6143,-5232,369,-2085,1239,-0.29675293,-0.74987793,-0.638671875,22.5219727,-127.258301,75.6225586
887,4435008,4735008,887,-2419,-6074,-5094,371,-2047,1216,-0.295288086,-0.741455078,-0.621826172,22.644043,-124.938965,74.21875
888,4440000,4740000,888,-2597,-5998,-4945,364,-2014,1215,-0.317016602,-0.732177734,-0.603637695,22.2167969,-122.924805,74.1577148
889,4445008,4745008,889,-2840,-5937,-4868,347,-1990,1199,-0.346679688,-0.724731445,-0.594238281,21.1791992,-121.459961,73.1811523
890,4450000,4750000,890,-2887,-5926,-4854,332,-1958,1165,-0.352416992,-0.723388672,-0.592529297,20.2636719,-119.506836,71.105957
891,4455008,4755008,891,-2825,-5904,-4815,312,-1933,1137,-0.344848633,-0.720703125,-0.587768555,19.0429688,-117.980957,69.3969727
892,4460000,4760000,892,-2805,-5928,-4859,294,-1906,1113,-0.342407227,-0.723632812,-0.593139648,17.9443359,-116.333008,67.9321289
893,4465008,4765008,893,-2813,-6052,-4922,308,-1866,1081,-0.343383789,-0.738769531,-0.600830078,18.7988281,-113.891602,65.9790039
894,4470000,4770000,894,-2748,-6153,-4813,323,-1823,1041,-0.335449219,-0.751098633,-0.587524414,19.7143555,-111.26709,63.5375977
895,4475008,4775008,895,-2668,-6172,-4764,321,-1776,1010,-0.325683594,-0.753417969,-0.581542969,19.5922852,-108.398438,61.6455078
896,4480000,4780000,896,-2599,-6142,-4747,334,-1730,990,-0.317260742,-0.749755859,-0.579467773,20.3857422,-105.59082,60.4248047
897,4485008,4785008,897,-2628,-6104,-4631,342,-1696,976,-0.320800781,-0.745117188,-0.565307617,20.8740234,-103.515625,59.5703125
898,4490000,4790000,898,-2638,-6089,-4585,339,-1649,952,-0.322021484,-0.743286133,-0.559692383,20.690918,-100.646973,58.1054688
899,4495008,4795008,899,-2527,-6090,-4635,345,-1579,930,-0.30847168,-0.743408203,-0.565795898,21.0571289,-96.3745117,56.7626953
900,4500000,4800000,900,-2506,-6057,-4650,359,-1511,918,-0.305908203,-0.739379883,-0.567626953,21.9116211,-92.2241211,56.0302734
901,4505008,4805008,901,-2556,-6021,-4542,375,-1460,898,-0.312011719,-0.734985352,-0.554443359,22.8881836,-89.1113281,54.8095703
902,4510000,4810000,902,-2614,-6009,-4506,373,-1415,875,-0.319091797,-0.733520508,-0.550048828,22.7661133,-86.3647461,53.4057617
903,4515008,4815008,903,-2653,-5966,-4490,386,-1361,843,-0.323852539,-0.728271484,-0.548095703,23.5595703,-83.0688477,51.4526367
904,4520000,4820000,904,-2714,-5884,-4382,398,-1299,803,-0.331298828,-0.718261719,-0.534912109,24.2919922,-79.284668,49.0112305
905,4525008,4825008,905,-2843,-5778,-4375,397,-1241,755,-0.347045898,-0.705322266,-0.534057617,24.230957,-75.7446289,46.081543
906,4530000,4830000,906,-2949,-5704,-4382,402,-1191,705,-0.359985352,-0.696289062,-0.534912109,24.5361328,-72.6928711,43.0297852
907,4535008,4835008,907,-3077,-5680,-4311,401,-1126,663,-0.375610352,-0.693359375,-0.526245117,24.4750977,-68.7255859,40.4663086
908,4540000,4840000,908,-3212,-5682,-4287,398,-1055,615,-0.392089844,-0.693603516,-0.52331543,24.2919922,-64.3920898,37.5366211
909,4545008,4845008,909,-3313,-5633,-4245,386,-1006,585,-0.404418945,-0.68762207,-0.518188477,23.5595703,-61.4013672,35.7055664
910,4550000,4850000,910,-3445,-5464,-4162,357,-973,564,-0.420532227,-0.666992188,-0.508056641,21.7895508,-59.387207,34.4238281
911,4555008,4855008,911,-3554,-5356,-4237,318,-945,529,-0.433837891,-0.653808594,-0.517211914,19.4091797,-57.6782227,32.2875977
912,4560000,4860000,912,-3648,-5358,-4282,295,-926,490,-0.4453125,-0.654052734,-0.522705078,18.0053711,-56.5185547,29.9072266
913,4565008,4865008,913,-3663,-5454,-4270,285,-897,439,-0.447143555,-0.665771484,-0.521240234,17.3950195,-54.7485352,26.7944336
914,4570000,4870000,914,-3572,-5574,-4353,266,-868,416,-0.436035156,-0.680419922,-0.53137207,16.2353516,-52.9785156,25.390625
915,4575008,4875008,915,-3565,-5545,-4409,257,-843,405,-0.435180664,-0.676879883,-0.538208008,15.6860352,-51.4526367,24.7192383
916,4580000,4880000,916,-3549,-5465,-4347,257,-794,386,-0.433227539,-0.667114258,-0.530639648,15.6860352,-48.4619141,23.5595703
917,4585008,4885008,917,-3604,-5415,-4411,234,-749,387,-0.439941406,-0.661010742,-0.538452148,14.2822266,-45.715332,23.6206055
918,4590000,4890000,918,-3743,-5303,-4517,226,-728,367,-0.45690918,-0.647338867,-0.551391602,13.7939453,-44.4335938,22.3999023
919,4595008,4895008,919,-3716,-5233,-4443,225,-704,339,-0.453613281,-0.638793945,-0.542358398,13.7329102,-42.96875,20.690918
920,4600000,4900000,920,-3635,-5214,-4345,203,-675,331,-0.443725586,-0.636474609,-0.530395508,12.3901367,-41.1987305,20.2026367
921,4605008,4905008,921,-3618,-5221,-4309,182,-635,320,-0.441650391,-0.637329102,-0.526000977,11.1083984,-38.7573242,19.53125
922,4610000,4910000,922,-3583,-5252,-4255,163,-592,318,-0.43737793,-0.641113281,-0.51940918,9.94873047,-36.1328125,19.4091797
923,4615008,4915008,923,-3612,-5249,-4184,147,-552,310,-0.440917969,-0.64074707,-0.510742188,8.97216797,-33.6914062,18.9208984
924,4620000,4920000,924,-3742,-5307,-4152,132,-504,286,-0.456787109,-0.647827148,-0.506835938,8.05664062,-30.7617188,17.4560547
925,4625008,4925008,925,-3917,-5372,-4177,125,-477,273,-0.478149414,-0.655761719,-0.509887695,7.62939453,-29.1137695,16.6625977
926,4630000,4930000,926,-3953,-5331,-4065,113,-470,276,-0.482543945,-0.650756836,-0.49621582,6.89697266,-28.6865234,16.8457031
927,4635008,4935008,927,-3981,-5292,-4034,91,-451,270,-0.485961914,-0.645996094,-0.492431641,5.55419922,-27.5268555,16.4794922
928,4640000,4940000,928,-4074,-5356,-4061,76,-427,246,-0.497314453,-0.653808594,-0.495727539,4.63867188,-26.0620117,15.0146484
929,4645008,4945008,929,-4088,-5407,-4000,60,-420,230,-0.499023438,-0.66003418,-0.48828125,3.66210938,-25.6347656,14.0380859
930,4650000,4950000,930,-4065,-5394,-3923,38,-420,222,-0.49621582,-0.658447266,-0.478881836,2.31933594,-25.6347656,13.5498047
931,4655008,4955008,931,-4109,-5420,-3919,17,-403,214,-0.501586914,-0.661621094,-0.478393555,1.03759766,-24.597168,13.0615234
932,4660000,4960000,932,-4228,-5514,-4012,14,-392,200,-0.516113281,-0.673095703,-0.489746094,0.854492188,-23.9257812,12.2070312
933,4665008,4965008,933,-4208,-5571,-3978,15,-397,189,-0.513671875,-0.680053711,-0.485595703,0.915527344,-24.230957,11.5356445
934,4670000,4970000,934,-4117,-5554,-4004,14,-398,183,-0.502563477,-0.677978516,-0.488769531,0.854492188,-24.2919922,11.1694336
935,4675008,4975008,935,-3936,-5516,-3956,11,-389,172,-0.48046875,-0.673339844,-0.482910156,0.671386719,-23.7426758,10.4980469
936,4680000,4980000,936,-3820,-5545,-4038,5,-367,159,-0.466308594,-0.676879883,-0.492919922,0.305175781,-22.3999023,9.70458984
937,4685008,4985008,937,-3796,-5659,-4126,11,-351,146,-0.463378906,-0.690795898,-0.503662109,0.671386719,-21.4233398,8.91113281
938,4690000,4990000,938,-3721,-5746,-4085,17,-334,141,-0.454223633,-0.701416016,-0.498657227,1.03759766,-20.3857422,8.60595703
939,4695008,4995008,939,-3648,-5748,-4094,23,-305,133,-0.4453125,-0.701660156,-0.499755859,1.40380859,-18.6157227,8.11767578
940,4700000,5000000,940,-3575,-5700,-4048,31,-268,117,-0.436401367,-0.695800781,-0.494140625,1.89208984,-16.3574219,7.14111328
941,4705008,5005008,941,-3526,-5633,-4016,34,-224,97,-0.430419922,-0.68762207,-0.490234375,2.07519531,-13.671875,5.92041016
942,4710000,5010000,942,-3513,-5580,-3999,26,-184,73,-0.428833008,-0.681152344,-0.48815918,1.58691406,-11.2304688,4.45556641
943,4715008,5015008,943,-3516,-5576,-3969,13,-148,46,-0.429199219,-0.680664062,-0.48449707,0.793457031,-9.03320312,2.80761719
944,4720000,5020000,944,-3554,-5605,-3927,-2,-113,15,-0.433837891,-0.684204102,-0.479370117,-0.122070312,-6.89697266,0.915527344
945,4725008,5025008,945,-3650,-5627,-3885,-18,-77,-18,-0.445556641,-0.686889648,-0.474243164,-1.09863281,-4.69970703,-1.09863281
