sample_index,offset_us,timestamp_us,sequence,accel_x_raw,accel_y_raw,accel_z_raw,gyro_x_raw,gyro_y_raw,gyro_z_raw,accel_x_g,accel_y_g,accel_z_g,gyro_x_dps,gyro_y_dps,gyro_z_dps
0,0,300000,0,-6477,5396,-109,-23,372,530,-0.790649414,0.658691406,-0.0133056641,-1.40380859,22.7050781,32.3486328
1,5008,305008,1,-6280,5518,-168,-87,390,542,-0.766601562,0.673583984,-0.0205078125,-5.31005859,23.8037109,33.0810547
2,10000,310000,2,-6043,5594,-306,-176,415,552,-0.737670898,0.682861328,-0.0373535156,-10.7421875,25.3295898,33.6914062
3,15008,315008,3,-5827,5611,-483,-262,462,561,-0.711303711,0.684936523,-0.0589599609,-15.9912109,28.1982422,34.2407227
4,20000,320000,4,-5697,5609,-673,-337,525,578,-0.69543457,0.684692383,-0.0821533203,-20.5688477,32.043457,35.2783203
5,25008,325008,5,-5646,5595,-843,-394,569,602,-0.689208984,0.682983398,-0.102905273,-24.0478516,34.7290039,36.7431641
6,30000,330000,6,-5575,5573,-974,-428,590,624,-0.680541992,0.680297852,-0.118896484,-26.1230469,36.0107422,38.0859375
7,35008,335008,7,-5511,5529,-1113,-435,600,648,-0.672729492,0.674926758,-0.135864258,-26.550293,36.6210938,39.5507812
8,40000,340000,8,-5616,5488,-1218,-397,606,668,-0.685546875,0.669921875,-0.148681641,-24.230957,36.9873047,40.7714844
9,45008,345008,9,-5747,5493,-1276,-328,602,684,-0.701538086,0.670532227,-0.155761719,-20.0195312,36.7431641,41.7480469
10,50000,350000,10,-5859,5470,-1264,-250,575,703,-0.715209961,0.667724609,-0.154296875,-15.2587891,35.0952148,42.9077148
11,55008,355008,11,-5979,5430,-1207,-175,524,721,-0.729858398,0.662841797,-0.147338867,-10.6811523,31.9824219,44.0063477
12,60000,360000,12,-6096,5437,-1160,-95,444,734,-0.744140625,0.663696289,-0.141601562,-5.79833984,27.0996094,44.7998047
13,65008,365008,13,-6211,5475,-1027,-2,368,737,-0.758178711,0.668334961,-0.125366211,-0.122070312,22.4609375,44.9829102
14,70000,370000,14,-6320,5551,-843,87,317,723,-0.771484375,0.677612305,-0.102905273,5.31005859,19.3481445,44.128418
15,75008,375008,15,-6374,5630,-701,169,271,693,-0.778076172,0.687255859,-0.0855712891,10.3149414,16.5405273,42.2973633
16,80000,380000,16,-6327,5682,-586,252,228,660,-0.772338867,0.693603516,-0.0715332031,15.3808594,13.9160156,40.2832031
17,85008,385008,17,-6292,5768,-480,334,197,628,-0.768066406,0.704101562,-0.05859375,20.3857422,12.0239258,38.3300781
18,90000,390000,18,-6261,5924,-337,389,191,591,-0.764282227,0.723144531,-0.0411376953,23.7426758,11.6577148,36.0717773
19,95008,395008,19,-6139,6073,-108,391,218,544,-0.749389648,0.741333008,-0.0131835938,23.8647461,13.3056641,33.203125
20,100000,400000,20,-5994,6162,82,334,277,495,-0.731689453,0.752197266,0.0100097656,20.3857422,16.9067383,30.2124023
21,105008,405008,21,-5907,6183,55,253,350,459,-0.721069336,0.754760742,0.00671386719,15.4418945,21.3623047,28.0151367
22,110000,410000,22,-5858,6120,-108,190,408,433,-0.715087891,0.747070312,-0.0131835938,11.5966797,24.9023438,26.4282227
23,115008,415008,23,-5852,6041,-197,135,449,414,-0.714355469,0.737426758,-0.0240478516,8.23974609,27.4047852,25.2685547
24,120000,420000,24,-5878,5953,-271,61,491,397,-0.717529297,0.72668457,-0.0330810547,3.72314453,29.9682617,24.230957
25,125008,425008,25,-5911,5824,-405,-26,526,383,-0.721557617,0.7109375,-0.0494384766,-1.58691406,32.1044922,23.3764648
26,130000,430000,26,-5995,5647,-590,-100,548,375,-0.731811523,0.689331055,-0.0720214844,-6.10351562,33.4472656,22.8881836
27,135008,435008,27,-6131,5463,-801,-132,551,372,-0.748413086,0.666870117,-0.0977783203,-8.05664062,33.6303711,22.7050781
28,140000,440000,28,-6271,5325,-925,-124,523,367,-0.76550293,0.650024414,-0.112915039,-7.56835938,31.9213867,22.3999023
29,145008,445008,29,-6367,5200,-924,-98,481,354,-0.77722168,0.634765625,-0.112792969,-5.98144531,29.3579102,21.6064453
30,150000,450000,30,-6410,5095,-871,-66,439,335,-0.782470703,0.621948242,-0.106323242,-4.02832031,26.7944336,20.4467773
31,155008,455008,31,-6408,5027,-824,-35,389,317,-0.782226562,0.613647461,-0.100585938,-2.13623047,23.7426758,19.3481445
32,160000,460000,32,-6379,5026,-768,-6,338,307,-0.778686523,0.613525391,-0.09375,-0.366210938,20.6298828,18.737793
33,165008,465008,33,-6338,5122,-702,20,294,305,-0.773681641,0.625244141,-0.0856933594,1.22070312,17.9443359,18.6157227
34,170000,470000,34,-6261,5260,-627,34,258,309,-0.764282227,0.642089844,-0.0765380859,2.07519531,15.7470703,18.8598633
35,175008,475008,35,-6128,5390,-595,36,237,318,-0.748046875,0.657958984,-0.0726318359,2.19726562,14.465332,19.4091797
36,180000,480000,36,-6005,5574,-582,32,230,335,-0.733032227,0.680419922,-0.0710449219,1.953125,14.0380859,20.4467773
37,185008,485008,37,-5928,5804,-493,5,216,353,-0.723632812,0.708496094,-0.0601806641,0.305175781,13.1835938,21.5454102
38,190000,490000,38,-5824,5956,-398,-49,207,365,-0.7109375,0.727050781,-0.0485839844,-2.99072266,12.6342773,22.277832
39,195008,495008,39,-5668,6036,-379,-105,228,372,-0.691894531,0.736816406,-0.0462646484,-6.40869141,13.9160156,22.7050781
40,200000,500000,40,-5502,6109,-443,-142,273,375,-0.671630859,0.745727539,-0.0540771484,-8.66699219,16.6625977,22.8881836
41,205008,505008,41,-5385,6202,-518,-160,314,382,-0.657348633,0.757080078,-0.0632324219,-9.765625,19.1650391,23.3154297
42,210000,510000,42,-5321,6243,-562,-166,349,390,-0.649536133,0.762084961,-0.0686035156,-10.1318359,21.3012695,23.8037109
43,215008,515008,43,-5307,6206,-604,-158,381,391,-0.647827148,0.757568359,-0.0737304688,-9.64355469,23.2543945,23.8647461
44,220000,520000,44,-5377,6159,-617,-136,403,383,-0.65637207,0.751831055,-0.0753173828,-8.30078125,24.597168,23.3764648
45,225008,525008,45,-5492,6050,-663,-104,416,362,-0.670410156,0.738525391,-0.0809326172,-6.34765625,25.390625,22.0947266
46,230000,530000,46,-5582,5860,-787,-42,421,330,-0.681396484,0.715332031,-0.0960693359,-2.56347656,25.6958008,20.1416016
47,235008,535008,47,-5702,5715,-842,44,414,295,-0.696044922,0.697631836,-0.102783203,2.68554688,25.2685547,18.0053711
48,240000,540000,48,-5822,5607,-798,104,402,260,-0.710693359,0.684448242,-0.0974121094,6.34765625,24.5361328,15.8691406
49,245008,545008,49,-5869,5459,-844,125,385,225,-0.716430664,0.666381836,-0.103027344,7.62939453,23.4985352,13.7329102
50,250000,550000,50,-5879,5364,-1008,138,352,199,-0.717651367,0.654785156,-0.123046875,8.42285156,21.484375,12.1459961
51,255008,555008,51,-5878,5425,-1137,151,308,187,-0.717529297,0.662231445,-0.138793945,9.21630859,18.7988281,11.4135742
52,260000,560000,52,-5869,5565,-1200,148,261,184,-0.716430664,0.679321289,-0.146484375,9.03320312,15.9301758,11.2304688
53,265008,565008,53,-5763,5712,-1301,136,223,189,-0.703491211,0.697265625,-0.158813477,8.30078125,13.6108398,11.5356445
54,270000,570000,54,-5608,5906,-1380,132,208,204,-0.684570312,0.720947266,-0.168457031,8.05664062,12.6953125,12.4511719
55,275008,575008,55,-5474,6120,-1397,124,206,227,-0.668212891,0.747070312,-0.170532227,7.56835938,12.5732422,13.8549805
56,280000,580000,56,-5323,6312,-1394,104,203,256,-0.649780273,0.770507812,-0.170166016,6.34765625,12.3901367,15.625
57,285008,585008,57,-5176,6470,-1361,77,215,289,-0.631835938,0.789794922,-0.166137695,4.69970703,13.1225586,17.6391602
58,290000,590000,58,-5046,6564,-1335,51,256,316,-0.615966797,0.801269531,-0.162963867,3.11279297,15.625,19.2871094
59,295008,595008,59,-4943,6587,-1336,27,308,337,-0.603393555,0.804077148,-0.163085938,1.64794922,18.7988281,20.5688477
60,300000,600000,60,-4919,6571,-1327,-2,351,356,-0.600463867,0.802124023,-0.161987305,-0.122070312,21.4233398,21.7285156
61,305008,605008,61,-4997,6520,-1298,-48,383,364,-0.609985352,0.795898438,-0.158447266,-2.9296875,23.3764648,22.2167969
62,310000,610000,62,-5097,6397,-1307,-100,401,357,-0.622192383,0.780883789,-0.159545898,-6.10351562,24.4750977,21.7895508
63,315008,615008,63,-5148,6243,-1333,-134,408,351,-0.628417969,0.762084961,-0.162719727,-8.17871094,24.9023438,21.4233398
64,320000,620000,64,-5216,6145,-1315,-145,405,354,-0.63671875,0.75012207,-0.160522461,-8.85009766,24.7192383,21.6064453
65,325008,625008,65,-5334,6119,-1280,-136,387,356,-0.651123047,0.746948242,-0.15625,-8.30078125,23.6206055,21.7285156
66,330000,630000,66,-5427,6086,-1270,-109,355,349,-0.662475586,0.742919922,-0.155029297,-6.65283203,21.6674805,21.3012695
67,335008,635008,67,-5453,6041,-1255,-60,324,339,-0.665649414,0.737426758,-0.153198242,-3.66210938,19.7753906,20.690918
68,340000,640000,68,-5445,6058,-1239,0,302,338,-0.664672852,0.739501953,-0.151245117,0,18.4326172,20.6298828
69,345008,645008,69,-5451,6132,-1228,54,285,337,-0.665405273,0.748535156,-0.149902344,3.29589844,17.3950195,20.5688477
70,350000,650000,70,-5402,6200,-1239,97,277,334,-0.659423828,0.756835938,-0.151245117,5.92041016,16.9067383,20.3857422
71,355008,655008,71,-5302,6241,-1322,137,276,336,-0.647216797,0.76184082,-0.161376953,8.36181641,16.8457031,20.5078125
72,360000,660000,72,-5222,6298,-1410,183,282,339,-0.637451172,0.768798828,-0.172119141,11.1694336,17.2119141,20.690918
73,365008,665008,73,-5162,6414,-1405,215,296,339,-0.630126953,0.782958984,-0.171508789,13.1225586,18.0664062,20.690918
74,370000,670000,74,-5136,6510,-1369,218,317,336,-0.626953125,0.794677734,-0.167114258,13.3056641,19.3481445,20.5078125
75,375008,675008,75,-5133,6527,-1379,215,348,319,-0.626586914,0.79675293,-0.168334961,13.1225586,21.2402344,19.4702148
76,380000,680000,76,-5057,6477,-1433,223,383,297,-0.61730957,0.790649414,-0.174926758,13.6108398,23.3764648,18.1274414
77,385008,685008,77,-5026,6403,-1486,249,405,287,-0.613525391,0.781616211,-0.181396484,15.1977539,24.7192383,17.5170898
78,390000,690000,78,-5117,6388,-1456,285,411,283,-0.624633789,0.779785156,-0.177734375,17.3950195,25.0854492,17.2729492
79,395008,695008,79,-5232,6381,-1362,310,400,279,-0.638671875,0.778930664,-0.166259766,18.9208984,24.4140625,17.0288086
80,400000,700000,80,-5312,6336,-1273,316,373,271,-0.6484375,0.7734375,-0.155395508,19.2871094,22.7661133,16.5405273
81,405008,705008,81,-5297,6254,-1245,313,333,261,-0.646606445,0.763427734,-0.151977539,19.1040039,20.324707,15.9301758
82,410000,710000,82,-5175,6151,-1219,304,276,258,-0.631713867,0.750854492,-0.148803711,18.5546875,16.8457031,15.7470703
83,415008,715008,83,-5070,6109,-1187,281,228,263,-0.618896484,0.745727539,-0.144897461,17.1508789,13.9160156,16.0522461
84,420000,720000,84,-5052,6116,-1164,253,220,268,-0.616699219,0.746582031,-0.142089844,15.4418945,13.4277344,16.3574219
85,425008,725008,85,-5066,6097,-1183,226,247,269,-0.618408203,0.744262695,-0.14440918,13.7939453,15.0756836,16.418457
86,430000,730000,86,-5112,6026,-1275,210,284,267,-0.624023438,0.735595703,-0.155639648,12.8173828,17.3339844,16.2963867
87,435008,735008,87,-5147,5942,-1369,206,311,261,-0.628295898,0.725341797,-0.167114258,12.5732422,18.9819336,15.9301758
88,440000,740000,88,-5151,5883,-1416,200,318,251,-0.62878418,0.718139648,-0.172851562,12.2070312,19.4091797,15.3198242
89,445008,745008,89,-5197,5827,-1409,175,309,243,-0.634399414,0.711303711,-0.17199707,10.6811523,18.8598633,14.831543
90,450000,750000,90,-5265,5747,-1377,129,294,225,-0.642700195,0.701538086,-0.16809082,7.87353516,17.9443359,13.7329102
91,455008,755008,91,-5298,5638,-1338,82,277,193,-0.646728516,0.688232422,-0.163330078,5.00488281,16.9067383,11.7797852
92,460000,760000,92,-5278,5496,-1332,50,254,165,-0.644287109,0.670898438,-0.162597656,3.05175781,15.5029297,10.0708008
93,465008,765008,93,-5308,5423,-1315,47,231,151,-0.647949219,0.661987305,-0.160522461,2.86865234,14.0991211,9.21630859
94,470000,770000,94,-5431,5475,-1260,66,211,138,-0.662963867,0.668334961,-0.153808594,4.02832031,12.878418,8.42285156
95,475008,775008,95,-5488,5535,-1220,90,190,113,-0.669921875,0.67565918,-0.148925781,5.49316406,11.5966797,6.89697266
96,480000,780000,96,-5395,5583,-1177,107,170,80,-0.658569336,0.681518555,-0.143676758,6.53076172,10.3759766,4.8828125
97,485008,785008,97,-5266,5624,-1192,116,150,65,-0.642822266,0.686523438,-0.145507812,7.08007812,9.15527344,3.96728516
98,490000,790000,98,-5240,5692,-1268,140,136,65,-0.639648438,0.694824219,-0.154785156,8.54492188,8.30078125,3.96728516
99,495008,795008,99,-5281,5790,-1287,173,123,62,-0.64465332,0.706787109,-0.157104492,10.559082,7.50732422,3.78417969
100,500000,800000,100,-5292,5859,-1233,186,104,49,-0.645996094,0.715209961,-0.150512695,11.3525391,6.34765625,2.99072266
101,505008,805008,101,-5289,5877,-1173,170,84,38,-0.645629883,0.717407227,-0.143188477,10.3759766,5.12695312,2.31933594
102,510000,810000,102,-5310,5889,-1123,141,63,34,-0.648193359,0.71887207,-0.137084961,8.60595703,3.84521484,2.07519531
103,515008,815008,103,-5299,5894,-1086,110,40,30,-0.646850586,0.719482422,-0.132568359,6.71386719,2.44140625,1.83105469
104,520000,820000,104,-5273,5884,-1055,84,22,27,-0.643676758,0.718261719,-0.12878418,5.12695312,1.34277344,1.64794922
105,525008,825008,105,-5253,5888,-1029,66,7,23,-0.641235352,0.71875,-0.125610352,4.02832031,0.427246094,1.40380859
106,530000,830000,106,-5213,5898,-1030,50,-7,13,-0.636352539,0.719970703,-0.125732422,3.05175781,-0.427246094,0.793457031
107,535008,835008,107,-5213,5904,-1049,42,-19,0,-0.636352539,0.720703125,-0.128051758,2.56347656,-1.15966797,0
108,540000,840000,108,-5266,5898,-1066,37,-27,-16,-0.642822266,0.719970703,-0.130126953,2.25830078,-1.64794922,-0.9765625
109,545008,845008,109,-5318,5861,-1107,29,-39,-34,-0.649169922,0.715454102,-0.135131836,1.77001953,-2.38037109,-2.07519531
110,550000,850000,110,-5399,5807,-1161,24,-56,-51,-0.659057617,0.708862305,-0.141723633,1.46484375,-3.41796875,-3.11279297
111,555008,855008,111,-5469,5760,-1191,19,-77,-72,-0.667602539,0.703125,-0.145385742,1.15966797,-4.69970703,-4.39453125
112,560000,860000,112,-5482,5709,-1224,11,-110,-91,-0.669189453,0.696899414,-0.149414062,0.671386719,-6.71386719,-5.55419922
113,565008,865008,113,-5483,5679,-1238,6,-150,-105,-0.669311523,0.693237305,-0.151123047,0.366210938,-9.15527344,-6.40869141
114,570000,870000,114,-5494,5676,-1220,4,-185,-118,-0.670654297,0.692871094,-0.148925781,0.244140625,-11.2915039,-7.20214844
115,575008,875008,115,-5516,5687,-1177,2,-218,-133,-0.673339844,0.694213867,-0.143676758,0.122070312,-13.3056641,-8.11767578
116,580000,880000,116,-5550,5704,-1117,-1,-253,-148,-0.677490234,0.696289062,-0.136352539,-0.0610351562,-15.4418945,-9.03320312
117,585008,885008,117,-5602,5720,-1045,-6,-286,-165,-0.683837891,0.698242188,-0.127563477,-0.366210938,-17.4560547,-10.0708008
118,590000,890000,118,-5665,5707,-993,-11,-317,-186,-0.69152832,0.696655273,-0.12121582,-0.671386719,-19.3481445,-11.3525391
119,595008,895008,119,-5729,5663,-964,-10,-348,-209,-0.69934082,0.69128418,-0.117675781,-0.610351562,-21.2402344,-12.7563477
120,600000,900000,120,-5807,5595,-904,-11,-382,-237,-0.708862305,0.682983398,-0.110351562,-0.671386719,-23.3154297,-14.465332
121,605008,905008,121,-5870,5485,-830,-19,-418,-267,-0.716552734,0.669555664,-0.101318359,-1.15966797,-25.5126953,-16.2963867
122,610000,910000,122,-5918,5367,-777,-28,-458,-301,-0.722412109,0.655151367,-0.0948486328,-1.70898438,-27.9541016,-18.371582
123,615008,915008,123,-5955,5247,-742,-36,-499,-337,-0.726928711,0.64050293,-0.0905761719,-2.19726562,-30.456543,-20.5688477
124,620000,920000,124,-5960,5132,-738,-37,-534,-371,-0.727539062,0.626464844,-0.0900878906,-2.25830078,-32.5927734,-22.644043
125,625008,925008,125,-5944,5032,-765,-27,-560,-406,-0.725585938,0.614257812,-0.0933837891,-1.64794922,-34.1796875,-24.7802734
126,630000,930000,126,-5935,4942,-806,-5,-585,-440,-0.724487305,0.603271484,-0.0983886719,-0.305175781,-35.7055664,-26.8554688
127,635008,935008,127,-5961,4870,-828,24,-610,-477,-0.727661133,0.594482422,-0.101074219,1.46484375,-37.2314453,-29.1137695
128,640000,940000,128,-5978,4837,-848,46,-634,-517,-0.729736328,0.590454102,-0.103515625,2.80761719,-38.6962891,-31.5551758
129,645008,945008,129,-5989,4852,-879,55,-661,-555,-0.731079102,0.592285156,-0.107299805,3.35693359,-40.3442383,-33.8745117
130,650000,950000,130,-5997,4920,-891,52,-689,-591,-0.732055664,0.600585938,-0.108764648,3.17382812,-42.0532227,-36.0717773
131,655008,955008,131,-5999,5014,-888,31,-713,-622,-0.732299805,0.612060547,-0.108398438,1.89208984,-43.5180664,-37.9638672
132,660000,960000,132,-6012,5156,-858,-16,-728,-655,-0.733886719,0.629394531,-0.104736328,-0.9765625,-44.4335938,-39.9780273
133,665008,965008,133,-5983,5311,-856,-86,-746,-692,-0.73034668,0.64831543,-0.104492188,-5.24902344,-45.5322266,-42.2363281
134,670000,970000,134,-5935,5438,-900,-157,-780,-728,-0.724487305,0.663818359,-0.109863281,-9.58251953,-47.6074219,-44.4335938
135,675008,975008,135,-5953,5572,-908,-209,-812,-760,-0.72668457,0.680175781,-0.110839844,-12.7563477,-49.5605469,-46.3867188
136,680000,980000,136,-5980,5706,-853,-250,-832,-790,-0.729980469,0.696533203,-0.104125977,-15.2587891,-50.78125,-48.2177734
137,685008,985008,137,-5942,5840,-769,-296,-850,-817,-0.725341797,0.712890625,-0.0938720703,-18.0664062,-51.8798828,-49.8657227
138,690000,990000,138,-5895,5962,-716,-344,-870,-833,-0.719604492,0.727783203,-0.0874023438,-20.9960938,-53.1005859,-50.8422852
139,695008,995008,139,-5911,6085,-651,-379,-891,-842,-0.721557617,0.742797852,-0.0794677734,-23.1323242,-54.3823242,-51.3916016
140,700000,1000000,140,-5912,6207,-556,-402,-904,-852,-0.721679688,0.75769043,-0.0678710938,-24.5361328,-55.1757812,-52.0019531
141,705008,1005008,141,-5881,6308,-486,-415,-897,-851,-0.717895508,0.770019531,-0.0593261719,-25.3295898,-54.7485352,-51.940918
142,710000,1010000,142,-5869,6407,-426,-420,-881,-842,-0.716430664,0.782104492,-0.0520019531,-25.6347656,-53.7719727,-51.3916016
143,715008,1015008,143,-5830,6465,-415,-422,-863,-836,-0.711669922,0.78918457,-0.0506591797,-25.7568359,-52.6733398,-51.0253906
144,720000,1020000,144,-5763,6435,-486,-410,-844,-827,-0.703491211,0.785522461,-0.0593261719,-25.0244141,-51.5136719,-50.4760742
145,725008,1025008,145,-5674,6390,-573,-380,-824,-817,-0.692626953,0.780029297,-0.0699462891,-23.1933594,-50.2929688,-49.8657227
146,730000,1030000,146,-5573,6362,-634,-345,-793,-809,-0.680297852,0.776611328,-0.0773925781,-21.0571289,-48.4008789,-49.3774414
147,735008,1035008,147,-5514,6290,-716,-315,-743,-800,-0.673095703,0.767822266,-0.0874023438,-19.2260742,-45.3491211,-48.828125
148,740000,1040000,148,-5536,6159,-852,-276,-684,-798,-0.67578125,0.751831055,-0.104003906,-16.8457031,-41.7480469,-48.7060547
149,745008,1045008,149,-5569,6024,-957,-225,-632,-802,-0.67980957,0.735351562,-0.116821289,-13.7329102,-38.5742188,-48.9501953
150,750000,1050000,150,-5643,5940,-985,-177,-595,-812,-0.688842773,0.725097656,-0.120239258,-10.8032227,-36.315918,-49.5605469
151,755008,1055008,151,-5801,5887,-1008,-148,-570,-834,-0.708129883,0.71862793,-0.123046875,-9.03320312,-34.7900391,-50.9033203
152,760000,1060000,152,-5979,5856,-1082,-129,-547,-870,-0.729858398,0.71484375,-0.132080078,-7.87353516,-33.3862305,-53.1005859
153,765008,1065008,153,-6180,5855,-1172,-114,-532,-901,-0.754394531,0.71472168,-0.143066406,-6.95800781,-32.4707031,-54.9926758
154,770000,1070000,154,-6401,5882,-1238,-114,-539,-924,-0.78137207,0.718017578,-0.151123047,-6.95800781,-32.8979492,-56.3964844
155,775008,1075008,155,-6587,5933,-1265,-130,-578,-948,-0.804077148,0.724243164,-0.154418945,-7.93457031,-35.2783203,-57.8613281
156,780000,1080000,156,-6735,5995,-1270,-151,-641,-969,-0.822143555,0.731811523,-0.155029297,-9.21630859,-39.1235352,-59.1430664
157,785008,1085008,157,-6863,6091,-1228,-165,-711,-991,-0.837768555,0.743530273,-0.149902344,-10.0708008,-43.3959961,-60.4858398
158,790000,1090000,158,-6958,6188,-1113,-172,-783,-1017,-0.849365234,0.755371094,-0.135864258,-10.4980469,-47.7905273,-62.0727539
159,795008,1095008,159,-7030,6255,-966,-173,-854,-1048,-0.858154297,0.763549805,-0.117919922,-10.559082,-52.1240234,-63.9648438
160,800000,1100000,160,-7008,6251,-797,-162,-911,-1071,-0.85546875,0.763061523,-0.0972900391,-9.88769531,-55.6030273,-65.3686523
161,805008,1105008,161,-6891,6181,-579,-140,-952,-1082,-0.841186523,0.754516602,-0.0706787109,-8.54492188,-58.1054688,-66.0400391
162,810000,1110000,162,-6754,6065,-321,-129,-981,-1084,-0.824462891,0.740356445,-0.0391845703,-7.87353516,-59.8754883,-66.1621094
163,815008,1115008,163,-6612,5904,-113,-133,-1008,-1080,-0.807128906,0.720703125,-0.0137939453,-8.11767578,-61.5234375,-65.9179688
164,820000,1120000,164,-6453,5730,6,-138,-1027,-1072,-0.787719727,0.699462891,0.000732421875,-8.42285156,-62.6831055,-65.4296875
165,825008,1125008,165,-6294,5529,64,-135,-1022,-1056,-0.768310547,0.674926758,0.0078125,-8.23974609,-62.3779297,-64.453125
166,830000,1130000,166,-6159,5299,70,-122,-994,-1033,-0.751831055,0.646850586,0.00854492188,-7.44628906,-60.6689453,-63.0493164
167,835008,1135008,167,-6058,5076,31,-103,-941,-999,-0.739501953,0.619628906,0.00378417969,-6.28662109,-57.434082,-60.9741211
168,840000,1140000,168,-6021,4892,-53,-77,-866,-960,-0.734985352,0.597167969,-0.00646972656,-4.69970703,-52.8564453,-58.59375
169,845008,1145008,169,-6082,4775,-224,-41,-783,-929,-0.742431641,0.582885742,-0.02734375,-2.50244141,-47.7905273,-56.7016602
170,850000,1150000,170,-6135,4689,-576,27,-705,-907,-0.748901367,0.572387695,-0.0703125,1.64794922,-43.0297852,-55.3588867
171,855008,1155008,171,-6075,4588,-971,133,-656,-871,-0.741577148,0.560058594,-0.118530273,8.11767578,-40.0390625,-53.1616211
172,860000,1160000,172,-5971,4535,-1224,229,-648,-811,-0.728881836,0.553588867,-0.149414062,13.9770508,-39.5507812,-49.4995117
173,865008,1165008,173,-5881,4576,-1351,287,-645,-752,-0.717895508,0.55859375,-0.164916992,17.5170898,-39.3676758,-45.8984375
174,870000,1170000,174,-5848,4683,-1412,318,-623,-708,-0.713867188,0.571655273,-0.172363281,19.4091797,-38.0249023,-43.2128906
175,875008,1175008,175,-5841,4831,-1392,331,-593,-671,-0.713012695,0.58972168,-0.169921875,20.2026367,-36.1938477,-40.9545898
176,880000,1180000,176,-5853,5013,-1284,317,-566,-641,-0.714477539,0.611938477,-0.156738281,19.3481445,-34.5458984,-39.1235352
177,885008,1185008,177,-5889,5134,-1209,286,-541,-621,-0.71887207,0.626708984,-0.147583008,17.4560547,-33.0200195,-37.902832
178,890000,1190000,178,-5931,5197,-1187,259,-527,-605,-0.723999023,0.634399414,-0.144897461,15.8081055,-32.1655273,-36.9262695
179,895008,1195008,179,-5966,5265,-1125,224,-536,-598,-0.728271484,0.642700195,-0.137329102,13.671875,-32.7148438,-36.4990234
180,900000,1200000,180,-6016,5293,-1036,183,-559,-596,-0.734375,0.646118164,-0.126464844,11.1694336,-34.1186523,-36.3769531
181,905008,1205008,181,-6079,5264,-990,159,-591,-594,-0.74206543,0.642578125,-0.120849609,9.70458984,-36.0717773,-36.2548828
182,910000,1210000,182,-6128,5224,-1014,170,-637,-591,-0.748046875,0.637695312,-0.123779297,10.3759766,-38.8793945,-36.0717773
183,915008,1215008,183,-6185,5196,-1018,222,-700,-585,-0.755004883,0.634277344,-0.124267578,13.5498047,-42.7246094,-35.7055664
184,920000,1220000,184,-6256,5168,-909,292,-763,-581,-0.763671875,0.630859375,-0.110961914,17.8222656,-46.5698242,-35.4614258
185,925008,1225008,185,-6371,5133,-764,365,-813,-582,-0.777709961,0.626586914,-0.0932617188,22.277832,-49.621582,-35.5224609
186,930000,1230000,186,-6486,5118,-616,447,-853,-588,-0.791748047,0.624755859,-0.0751953125,27.2827148,-52.0629883,-35.8886719
187,935008,1235008,187,-6501,5199,-515,540,-881,-584,-0.793579102,0.634643555,-0.0628662109,32.9589844,-53.7719727,-35.6445312
188,940000,1240000,188,-6524,5357,-473,647,-913,-558,-0.796386719,0.653930664,-0.0577392578,39.4897461,-55.7250977,-34.0576172
189,945008,1245008,189,-6670,5461,-381,755,-938,-536,-0.814208984,0.666625977,-0.0465087891,46.081543,-57.2509766,-32.7148438
190,950000,1250000,190,-6717,5519,-238,834,-935,-535,-0.819946289,0.673706055,-0.0290527344,50.9033203,-57.0678711,-32.6538086
191,955008,1255008,191,-6706,5497,-201,871,-923,-533,-0.818603516,0.671020508,-0.0245361328,53.1616211,-56.3354492,-32.5317383
192,960000,1260000,192,-6838,5406,-239,902,-902,-505,-0.834716797,0.659912109,-0.0291748047,55.0537109,-55.0537109,-30.8227539
193,965008,1265008,193,-6999,5379,-216,926,-884,-472,-0.854370117,0.656616211,-0.0263671875,56.5185547,-53.9550781,-28.8085938
194,970000,1270000,194,-6963,5359,-247,915,-875,-447,-0.849975586,0.654174805,-0.0301513672,55.847168,-53.4057617,-27.2827148
195,975008,1275008,195,-6705,5418,-262,867,-850,-417,-0.818481445,0.661376953,-0.0319824219,52.9174805,-51.8798828,-25.4516602
196,980000,1280000,196,-6391,5461,-287,775,-797,-384,-0.780151367,0.666625977,-0.0350341797,47.3022461,-48.6450195,-23.4375
197,985008,1285008,197,-6243,5321,-465,690,-725,-341,-0.762084961,0.649536133,-0.0567626953,42.1142578,-44.2504883,-20.8129883
198,990000,1290000,198,-6245,5203,-602,651,-666,-288,-0.762329102,0.635131836,-0.0734863281,39.7338867,-40.6494141,-17.578125
199,995008,1295008,199,-6165,5149,-595,616,-621,-248,-0.752563477,0.628540039,-0.0726318359,37.5976562,-37.902832,-15.1367188
200,1000000,1300000,200,-6072,5083,-575,569,-573,-210,-0.741210938,0.620483398,-0.0701904297,34.7290039,-34.9731445,-12.8173828
201,1005008,1305008,201,-6035,5075,-519,521,-536,-164,-0.736694336,0.619506836,-0.0633544922,31.7993164,-32.7148438,-10.0097656
202,1010000,1310000,202,-6117,5069,-436,481,-519,-117,-0.746704102,0.618774414,-0.0532226562,29.3579102,-31.6772461,-7.14111328
203,1015008,1315008,203,-6282,4977,-331,469,-521,-85,-0.766845703,0.607543945,-0.0404052734,28.6254883,-31.7993164,-5.18798828
204,1020000,1320000,204,-6413,4911,-152,472,-522,-79,-0.782836914,0.599487305,-0.0185546875,28.8085938,-31.8603516,-4.82177734
205,1025008,1325008,205,-6578,4893,-40,476,-510,-66,-0.802978516,0.597290039,-0.0048828125,29.0527344,-31.1279297,-4.02832031
206,1030000,1330000,206,-6841,4902,9,495,-517,-46,-0.835083008,0.598388672,0.00109863281,30.2124023,-31.5551758,-2.80761719
207,1035008,1335008,207,-7015,4936,74,517,-544,-45,-0.856323242,0.602539062,0.00903320312,31.5551758,-33.203125,-2.74658203
208,1040000,1340000,208,-6970,4937,90,529,-576,-58,-0.850830078,0.602661133,0.0109863281,32.2875977,-35.15625,-3.54003906
209,1045008,1345008,209,-6866,4903,62,549,-599,-69,-0.838134766,0.598510742,0.00756835938,33.5083008,-36.5600586,-4.21142578
210,1050000,1350000,210,-6763,4887,98,558,-612,-75,-0.825561523,0.596557617,0.0119628906,34.0576172,-37.3535156,-4.57763672
211,1055008,1355008,211,-6647,4898,148,534,-616,-84,-0.811401367,0.597900391,0.0180664062,32.5927734,-37.5976562,-5.12695312
212,1060000,1360000,212,-6569,4879,95,502,-608,-84,-0.801879883,0.595581055,0.0115966797,30.6396484,-37.109375,-5.12695312
213,1065008,1365008,213,-6537,4862,39,479,-602,-77,-0.797973633,0.593505859,0.00476074219,29.2358398,-36.7431641,-4.69970703
214,1070000,1370000,214,-6496,4861,64,457,-597,-77,-0.79296875,0.593383789,0.0078125,27.8930664,-36.4379883,-4.69970703
215,1075008,1375008,215,-6469,4827,102,437,-582,-67,-0.789672852,0.589233398,0.0124511719,26.6723633,-35.5224609,-4.08935547
216,1080000,1380000,216,-6491,4767,121,431,-550,-54,-0.792358398,0.58190918,0.0147705078,26.3061523,-33.5693359,-3.29589844
217,1085008,1385008,217,-6455,4695,105,436,-520,-44,-0.787963867,0.573120117,0.0128173828,26.6113281,-31.7382812,-2.68554688
218,1090000,1390000,218,-6353,4620,105,425,-524,-32,-0.775512695,0.563964844,0.0128173828,25.9399414,-31.9824219,-1.953125
219,1095008,1395008,219,-6271,4563,125,400,-522,-15,-0.76550293,0.557006836,0.0152587891,24.4140625,-31.8603516,-0.915527344
220,1100000,1400000,220,-6288,4540,168,381,-486,4,-0.767578125,0.554199219,0.0205078125,23.2543945,-29.6630859,0.244140625
221,1105008,1405008,221,-6365,4527,179,379,-448,23,-0.776977539,0.552612305,0.0218505859,23.1323242,-27.34375,1.40380859
222,1110000,1410000,222,-6447,4498,188,385,-440,41,-0.786987305,0.549072266,0.0229492188,23.4985352,-26.8554688,2.50244141
223,1115008,1415008,223,-6501,4496,234,394,-452,47,-0.793579102,0.548828125,0.0285644531,24.0478516,-27.5878906,2.86865234
224,1120000,1420000,224,-6516,4459,286,414,-469,53,-0.795410156,0.544311523,0.0349121094,25.2685547,-28.6254883,3.23486328
225,1125008,1425008,225,-6564,4422,413,426,-489,64,-0.801269531,0.539794922,0.0504150391,26.0009766,-29.8461914,3.90625
226,1130000,1430000,226,-6593,4473,515,416,-492,65,-0.80480957,0.546020508,0.0628662109,25.390625,-30.0292969,3.96728516
227,1135008,1435008,227,-6601,4529,511,400,-470,65,-0.805786133,0.552856445,0.0623779297,24.4140625,-28.6865234,3.96728516
228,1140000,1440000,228,-6544,4569,483,376,-449,54,-0.798828125,0.557739258,0.0589599609,22.9492188,-27.4047852,3.29589844
229,1145008,1445008,229,-6479,4590,396,351,-427,49,-0.790893555,0.560302734,0.0483398438,21.4233398,-26.0620117,2.99072266
230,1150000,1450000,230,-6688,4625,329,347,-399,68,-0.81640625,0.564575195,0.0401611328,21.1791992,-24.3530273,4.15039062
231,1155008,1455008,231,-6870,4670,305,343,-396,84,-0.838623047,0.570068359,0.0372314453,20.9350586,-24.1699219,5.12695312
232,1160000,1460000,232,-6783,4704,246,334,-412,89,-0.82800293,0.57421875,0.0300292969,20.3857422,-25.1464844,5.43212891
233,1165008,1465008,233,-6707,4774,224,334,-425,86,-0.818725586,0.582763672,0.02734375,20.3857422,-25.9399414,5.24902344
234,1170000,1470000,234,-6659,4822,284,329,-422,77,-0.812866211,0.588623047,0.0346679688,20.0805664,-25.7568359,4.69970703
235,1175008,1475008,235,-6682,4813,405,315,-406,71,-0.815673828,0.587524414,0.0494384766,19.2260742,-24.7802734,4.33349609
236,1180000,1480000,236,-6712,4730,427,290,-388,70,-0.819335938,0.577392578,0.0521240234,17.7001953,-23.6816406,4.27246094
237,1185008,1485008,237,-6834,4703,385,286,-378,75,-0.834228516,0.57409668,0.0469970703,17.4560547,-23.0712891,4.57763672
238,1190000,1490000,238,-6839,4704,426,294,-370,69,-0.834838867,0.57421875,0.0520019531,17.9443359,-22.5830078,4.21142578
239,1195008,1495008,239,-6689,4631,490,275,-356,63,-0.81652832,0.565307617,0.0598144531,16.784668,-21.7285156,3.84521484
240,1200000,1500000,240,-6624,4602,508,245,-338,70,-0.80859375,0.561767578,0.0620117188,14.9536133,-20.6298828,4.27246094
241,1205008,1505008,241,-6550,4599,470,216,-306,67,-0.799560547,0.561401367,0.0573730469,13.1835938,-18.6767578,4.08935547
242,1210000,1510000,242,-6536,4557,417,197,-273,62,-0.797851562,0.556274414,0.0509033203,12.0239258,-16.6625977,3.78417969
243,1215008,1515008,243,-6642,4536,373,188,-249,63,-0.810791016,0.553710938,0.0455322266,11.4746094,-15.1977539,3.84521484
244,1220000,1520000,244,-6736,4541,334,184,-239,70,-0.822265625,0.554321289,0.0407714844,11.2304688,-14.5874023,4.27246094
245,1225008,1525008,245,-6691,4499,315,182,-245,71,-0.816772461,0.549194336,0.0384521484,11.1083984,-14.9536133,4.33349609
246,1230000,1530000,246,-6620,4506,344,188,-246,73,-0.808105469,0.550048828,0.0419921875,11.4746094,-15.0146484,4.45556641
247,1235008,1535008,247,-6547,4536,444,195,-247,83,-0.799194336,0.553710938,0.0541992188,11.9018555,-15.0756836,5.06591797
248,1240000,1540000,248,-6496,4552,534,189,-240,90,-0.79296875,0.555664062,0.0651855469,11.5356445,-14.6484375,5.49316406
249,1245008,1545008,249,-6457,4591,561,172,-219,96,-0.788208008,0.560424805,0.0684814453,10.4980469,-13.3666992,5.859375
250,1250000,1550000,250,-6432,4636,535,156,-195,102,-0.78515625,0.565917969,0.0653076172,9.52148438,-11.9018555,6.22558594
251,1255008,1555008,251,-6448,4675,513,143,-180,105,-0.787109375,0.570678711,0.0626220703,8.72802734,-10.9863281,6.40869141
252,1260000,1560000,252,-6504,4719,528,131,-164,103,-0.793945312,0.576049805,0.064453125,7.99560547,-10.0097656,6.28662109
253,1265008,1565008,253,-6561,4725,537,113,-141,99,-0.80090332,0.576782227,0.0655517578,6.89697266,-8.60595703,6.04248047
254,1270000,1570000,254,-6600,4690,530,93,-123,95,-0.805664062,0.572509766,0.0646972656,5.67626953,-7.50732422,5.79833984
255,1275008,1575008,255,-6643,4684,507,76,-105,89,-0.810913086,0.571777344,0.0618896484,4.63867188,-6.40869141,5.43212891
256,1280000,1580000,256,-6660,4662,479,63,-83,76,-0.812988281,0.569091797,0.0584716797,3.84521484,-5.06591797,4.63867188
257,1285008,1585008,257,-6638,4612,484,51,-62,60,-0.810302734,0.562988281,0.0590820312,3.11279297,-3.78417969,3.66210938
258,1290000,1590000,258,-6611,4570,509,33,-37,42,-0.807006836,0.557861328,0.0621337891,2.01416016,-2.25830078,2.56347656
259,1295008,1595008,259,-6615,4526,490,14,-5,23,-0.807495117,0.552490234,0.0598144531,0.854492188,-0.305175781,1.40380859
260,1300000,1600000,260,-6666,4488,424,3,30,5,-0.813720703,0.547851562,0.0517578125,0.183105469,1.83105469,0.305175781
261,1305008,1605008,261,-6724,4471,365,-4,63,-16,-0.820800781,0.545776367,0.0445556641,-0.244140625,3.84521484,-0.9765625
262,1310000,1610000,262,-6733,4478,319,-12,94,-37,-0.821899414,0.546630859,0.0389404297,-0.732421875,5.73730469,-2.25830078
263,1315008,1615008,263,-6707,4499,279,-21,124,-54,-0.818725586,0.549194336,0.0340576172,-1.28173828,7.56835938,-3.29589844
264,1320000,1620000,264,-6672,4516,238,-33,150,-68,-0.814453125,0.551269531,0.0290527344,-2.01416016,9.15527344,-4.15039062
265,1325008,1625008,265,-6642,4542,209,-41,170,-78,-0.810791016,0.554443359,0.0255126953,-2.50244141,10.3759766,-4.76074219
266,1330000,1630000,266,-6613,4567,229,-50,185,-86,-0.807250977,0.557495117,0.0279541016,-3.05175781,11.2915039,-5.24902344
267,1335008,1635008,267,-6574,4598,283,-63,199,-94,-0.802490234,0.561279297,0.0345458984,-3.84521484,12.1459961,-5.73730469
268,1340000,1640000,268,-6527,4633,341,-81,214,-102,-0.79675293,0.565551758,0.0416259766,-4.94384766,13.0615234,-6.22558594
269,1345008,1645008,269,-6478,4659,389,-106,232,-110,-0.790771484,0.568725586,0.0474853516,-6.46972656,14.1601562,-6.71386719
270,1350000,1650000,270,-6447,4678,408,-134,253,-116,-0.786987305,0.571044922,0.0498046875,-8.17871094,15.4418945,-7.08007812
271,1355008,1655008,271,-6425,4696,402,-161,277,-121,-0.784301758,0.573242188,0.0490722656,-9.82666016,16.9067383,-7.38525391
272,1360000,1660000,272,-6386,4713,383,-186,301,-124,-0.779541016,0.575317383,0.0467529297,-11.3525391,18.371582,-7.56835938
273,1365008,1665008,273,-6341,4732,359,-211,328,-125,-0.774047852,0.577636719,0.0438232422,-12.878418,20.0195312,-7.62939453
274,1370000,1670000,274,-6313,4770,339,-238,361,-128,-0.770629883,0.582275391,0.0413818359,-14.5263672,22.0336914,-7.8125
275,1375008,1675008,275,-6291,4800,329,-268,402,-131,-0.767944336,0.5859375,0.0401611328,-16.3574219,24.5361328,-7.99560547
276,1380000,1680000,276,-6280,4794,308,-300,445,-131,-0.766601562,0.585205078,0.0375976562,-18.3105469,27.1606445,-7.99560547
277,1385008,1685008,277,-6316,4786,263,-333,489,-132,-0.770996094,0.584228516,0.0321044922,-20.324707,29.8461914,-8.05664062
278,1390000,1690000,278,-6344,4781,202,-364,534,-133,-0.774414062,0.583618164,0.0246582031,-22.2167969,32.5927734,-8.11767578
279,1395008,1695008,279,-6385,4788,143,-394,577,-132,-0.779418945,0.584472656,0.0174560547,-24.0478516,35.2172852,-8.05664062
280,1400000,1700000,280,-6438,4814,79,-426,616,-132,-0.785888672,0.587646484,0.00964355469,-26.0009766,37.5976562,-8.05664062
281,1405008,1705008,281,-6442,4816,23,-458,644,-129,-0.786376953,0.587890625,0.00280761719,-27.9541016,39.3066406,-7.87353516
282,1410000,1710000,282,-6409,4840,-9,-493,667,-113,-0.782348633,0.590820312,-0.00109863281,-30.090332,40.7104492,-6.89697266
283,1415008,1715008,283,-6395,4917,-27,-535,692,-87,-0.780639648,0.600219727,-0.00329589844,-32.6538086,42.2363281,-5.31005859
284,1420000,1720000,284,-6349,4974,-58,-582,720,-55,-0.775024414,0.607177734,-0.00708007812,-35.5224609,43.9453125,-3.35693359
285,1425008,1725008,285,-6279,4993,-77,-632,745,-21,-0.766479492,0.60949707,-0.00939941406,-38.5742188,45.4711914,-1.28173828
286,1430000,1730000,286,-6227,4992,-69,-687,764,10,-0.760131836,0.609375,-0.00842285156,-41.9311523,46.6308594,0.610351562
287,1435008,1735008,287,-6055,4944,-102,-737,783,43,-0.739135742,0.603515625,-0.0124511719,-44.9829102,47.7905273,2.62451172
288,1440000,1740000,288,-5905,4882,-158,-762,799,89,-0.720825195,0.595947266,-0.0192871094,-46.5087891,48.7670898,5.43212891
289,1445008,1745008,289,-5930,4893,-179,-755,815,137,-0.723876953,0.597290039,-0.0218505859,-46.081543,49.7436523,8.36181641
290,1450000,1750000,290,-6033,4986,-198,-726,828,172,-0.736450195,0.608642578,-0.0241699219,-44.3115234,50.5371094,10.4980469
291,1455008,1755008,291,-6080,5065,-220,-691,817,205,-0.7421875,0.618286133,-0.0268554688,-42.175293,49.8657227,12.512207
292,1460000,1760000,292,-6106,5109,-245,-653,795,235,-0.745361328,0.623657227,-0.0299072266,-39.855957,48.5229492,14.3432617
293,1465008,1765008,293,-6122,5139,-269,-605,780,256,-0.747314453,0.627319336,-0.0328369141,-36.9262695,47.6074219,15.625
294,1470000,1770000,294,-6149,5205,-239,-560,778,266,-0.750610352,0.635375977,-0.0291748047,-34.1796875,47.4853516,16.2353516
295,1475008,1775008,295,-6182,5305,-210,-529,797,272,-0.754638672,0.647583008,-0.0256347656,-32.2875977,48.6450195,16.6015625
296,1480000,1780000,296,-6239,5373,-200,-522,821,280,-0.76159668,0.655883789,-0.0244140625,-31.8603516,50.1098633,17.0898438
297,1485008,1785008,297,-6359,5423,-215,-543,842,287,-0.776245117,0.661987305,-0.0262451172,-33.1420898,51.3916016,17.5170898
298,1490000,1790000,298,-6488,5445,-316,-581,875,307,-0.791992188,0.664672852,-0.0385742188,-35.4614258,53.4057617,18.737793
299,1495008,1795008,299,-6587,5463,-449,-626,915,334,-0.804077148,0.666870117,-0.0548095703,-38.2080078,55.847168,20.3857422
300,1500000,1800000,300,-6567,5480,-607,-690,931,346,-0.801635742,0.668945312,-0.0740966797,-42.1142578,56.8237305,21.1181641
301,1505008,1805008,301,-6476,5468,-814,-752,941,354,-0.790527344,0.667480469,-0.0993652344,-45.8984375,57.434082,21.6064453
302,1510000,1810000,302,-6431,5455,-985,-775,963,375,-0.78503418,0.665893555,-0.120239258,-47.3022461,58.7768555,22.8881836
303,1515008,1815008,303,-6409,5417,-1039,-770,979,408,-0.782348633,0.661254883,-0.126831055,-46.9970703,59.753418,24.9023438
304,1520000,1820000,304,-6346,5296,-1013,-750,981,443,-0.774658203,0.646484375,-0.123657227,-45.7763672,59.8754883,27.0385742
305,1525008,1825008,305,-6283,5159,-929,-718,981,485,-0.766967773,0.629760742,-0.11340332,-43.8232422,59.8754883,29.6020508
306,1530000,1830000,306,-6230,5050,-800,-682,969,532,-0.760498047,0.616455078,-0.09765625,-41.6259766,59.1430664,32.4707031
307,1535008,1835008,307,-6219,4934,-695,-653,923,584,-0.759155273,0.602294922,-0.0848388672,-39.855957,56.3354492,35.6445312
308,1540000,1840000,308,-6206,4860,-583,-611,864,638,-0.757568359,0.593261719,-0.0711669922,-37.2924805,52.734375,38.9404297
309,1545008,1845008,309,-6168,4864,-479,-549,819,684,-0.752929688,0.59375,-0.0584716797,-33.5083008,49.987793,41.7480469
310,1550000,1850000,310,-6211,4914,-363,-478,772,730,-0.758178711,0.599853516,-0.0443115234,-29.1748047,47.1191406,44.5556641
311,1555008,1855008,311,-6299,4999,-187,-409,717,769,-0.768920898,0.610229492,-0.0228271484,-24.9633789,43.762207,46.9360352
312,1560000,1860000,312,-6345,5134,26,-363,666,801,-0.774536133,0.626708984,0.00317382812,-22.1557617,40.6494141,48.8891602
313,1565008,1865008,313,-6416,5281,183,-342,636,821,-0.783203125,0.64465332,0.0223388672,-20.8740234,38.8183594,50.1098633
314,1570000,1870000,314,-6468,5363,220,-335,635,827,-0.789550781,0.654663086,0.0268554688,-20.4467773,38.7573242,50.4760742
315,1575008,1875008,315,-6473,5414,180,-330,659,841,-0.790161133,0.660888672,0.0219726562,-20.1416016,40.222168,51.3305664
316,1580000,1880000,316,-6513,5517,67,-324,699,860,-0.795043945,0.673461914,0.00817871094,-19.7753906,42.6635742,52.4902344
317,1585008,1885008,317,-6554,5627,-130,-318,734,861,-0.800048828,0.686889648,-0.0158691406,-19.4091797,44.7998047,52.5512695
318,1590000,1890000,318,-6566,5644,-362,-305,756,850,-0.801513672,0.688964844,-0.0441894531,-18.6157227,46.1425781,51.8798828
319,1595008,1895008,319,-6550,5604,-548,-289,773,837,-0.799560547,0.684082031,-0.0668945312,-17.6391602,47.1801758,51.0864258
320,1600000,1900000,320,-6493,5570,-686,-289,786,819,-0.792602539,0.679931641,-0.0837402344,-17.6391602,47.9736328,49.987793
321,1605008,1905008,321,-6442,5527,-813,-301,793,808,-0.786376953,0.674682617,-0.0992431641,-18.371582,48.4008789,49.3164062
322,1610000,1910000,322,-6356,5489,-927,-310,798,806,-0.775878906,0.670043945,-0.11315918,-18.9208984,48.7060547,49.1943359
323,1615008,1915008,323,-6215,5493,-971,-330,800,804,-0.758666992,0.670532227,-0.118530273,-20.1416016,48.828125,49.0722656
324,1620000,1920000,324,-6071,5505,-974,-374,790,801,-0.741088867,0.67199707,-0.118896484,-22.8271484,48.2177734,48.8891602
325,1625008,1925008,325,-5926,5485,-1035,-419,774,801,-0.723388672,0.669555664,-0.126342773,-25.5737305,47.2412109,48.8891602
326,1630000,1930000,326,-5868,5422,-1124,-428,757,809,-0.716308594,0.661865234,-0.137207031,-26.1230469,46.2036133,49.3774414
327,1635008,1935008,327,-5913,5369,-1115,-390,742,823,-0.721801758,0.655395508,-0.136108398,-23.8037109,45.2880859,50.2319336
328,1640000,1940000,328,-5975,5412,-968,-334,719,842,-0.729370117,0.660644531,-0.118164062,-20.3857422,43.8842773,51.3916016
329,1645008,1945008,329,-6022,5452,-823,-288,691,850,-0.735107422,0.665527344,-0.100463867,-17.578125,42.175293,51.8798828
330,1650000,1950000,330,-6091,5436,-789,-234,652,847,-0.743530273,0.663574219,-0.0963134766,-14.2822266,39.7949219,51.6967773
331,1655008,1955008,331,-6274,5440,-700,-158,586,840,-0.765869141,0.6640625,-0.0854492188,-9.64355469,35.7666016,51.2695312
332,1660000,1960000,332,-6481,5422,-525,-99,535,828,-0.791137695,0.661865234,-0.0640869141,-6.04248047,32.6538086,50.5371094
333,1665008,1965008,333,-6656,5335,-428,-58,511,815,-0.8125,0.651245117,-0.0522460938,-3.54003906,31.1889648,49.7436523
334,1670000,1970000,334,-6864,5261,-388,-7,491,800,-0.837890625,0.642211914,-0.0473632812,-0.427246094,29.9682617,48.828125
335,1675008,1975008,335,-7041,5203,-354,61,480,778,-0.85949707,0.635131836,-0.0432128906,3.72314453,29.296875,47.4853516
336,1680000,1980000,336,-7186,5149,-339,136,487,753,-0.877197266,0.628540039,-0.0413818359,8.30078125,29.7241211,45.9594727
337,1685008,1985008,337,-7259,5140,-373,199,509,735,-0.886108398,0.627441406,-0.0455322266,12.1459961,31.0668945,44.8608398
338,1690000,1990000,338,-7185,5188,-490,240,525,723,-0.877075195,0.633300781,-0.0598144531,14.6484375,32.043457,44.128418
339,1695008,1995008,339,-6961,5271,-633,251,533,713,-0.849731445,0.643432617,-0.0772705078,15.3198242,32.5317383,43.5180664
340,1700000,2000000,340,-6695,5360,-753,227,536,705,-0.817260742,0.654296875,-0.0919189453,13.8549805,32.7148438,43.0297852
341,1705008,2005008,341,-6448,5478,-857,168,540,704,-0.787109375,0.668701172,-0.104614258,10.2539062,32.9589844,42.96875
342,1710000,2010000,342,-6164,5647,-884,71,553,708,-0.752441406,0.689331055,-0.107910156,4.33349609,33.7524414,43.2128906
343,1715008,2015008,343,-5891,5838,-846,-73,573,719,-0.719116211,0.712646484,-0.103271484,-4.45556641,34.9731445,43.8842773
344,1720000,2020000,344,-5670,6016,-815,-239,582,734,-0.692138672,0.734375,-0.0994873047,-14.5874023,35.5224609,44.7998047
345,1725008,2025008,345,-5445,6171,-766,-379,591,749,-0.664672852,0.753295898,-0.0935058594,-23.1323242,36.0717773,45.715332
346,1730000,2030000,346,-5335,6278,-682,-468,602,772,-0.651245117,0.766357422,-0.0832519531,-28.5644531,36.7431641,47.1191406
347,1735008,2035008,347,-5407,6328,-594,-502,604,788,-0.66003418,0.772460938,-0.0725097656,-30.6396484,36.8652344,48.0957031
348,1740000,2040000,348,-5552,6289,-496,-479,598,792,-0.677734375,0.767700195,-0.060546875,-29.2358398,36.4990234,48.3398438
349,1745008,2045008,349,-5696,6162,-389,-415,584,784,-0.6953125,0.752197266,-0.0474853516,-25.3295898,35.6445312,47.8515625
350,1750000,2050000,350,-5834,6001,-292,-333,550,763,-0.712158203,0.732543945,-0.0356445312,-20.324707,33.5693359,46.5698242
351,1755008,2055008,351,-6008,5753,-217,-236,502,729,-0.733398438,0.702270508,-0.0264892578,-14.4042969,30.6396484,44.4946289
352,1760000,2060000,352,-6219,5449,-144,-123,461,689,-0.759155273,0.665161133,-0.017578125,-7.50732422,28.137207,42.0532227
353,1765008,2065008,353,-6439,5228,-93,2,450,650,-0.786010742,0.638183594,-0.0113525391,0.122070312,27.4658203,39.6728516
354,1770000,2070000,354,-6623,5101,-129,117,465,600,-0.80847168,0.622680664,-0.0157470703,7.14111328,28.3813477,36.6210938
355,1775008,2075008,355,-6698,5029,-302,208,470,540,-0.817626953,0.613891602,-0.0368652344,12.6953125,28.6865234,32.9589844
356,1780000,2080000,356,-6578,5015,-544,272,458,490,-0.802978516,0.612182617,-0.06640625,16.6015625,27.9541016,29.9072266
357,1785008,2085008,357,-6290,5111,-697,284,449,467,-0.767822266,0.623901367,-0.0850830078,17.3339844,27.4047852,28.503418
358,1790000,2090000,358,-6001,5337,-802,218,460,469,-0.732543945,0.651489258,-0.0979003906,13.3056641,28.0761719,28.6254883
359,1795008,2095008,359,-5754,5653,-1003,103,490,486,-0.702392578,0.690063477,-0.122436523,6.28662109,29.9072266,29.6630859
360,1800000,2100000,360,-5460,5996,-1241,-4,526,511,-0.666503906,0.731933594,-0.151489258,-0.244140625,32.1044922,31.1889648
361,1805008,2105008,361,-5208,6304,-1421,-83,553,549,-0.635742188,0.76953125,-0.173461914,-5.06591797,33.7524414,33.5083008
362,1810000,2110000,362,-5078,6592,-1473,-134,575,588,-0.619873047,0.8046875,-0.17980957,-8.17871094,35.0952148,35.8886719
363,1815008,2115008,363,-5003,6854,-1350,-182,593,626,-0.610717773,0.836669922,-0.164794922,-11.1083984,36.1938477,38.2080078
364,1820000,2120000,364,-4973,6988,-1158,-237,610,658,-0.607055664,0.853027344,-0.141357422,-14.465332,37.2314453,40.1611328
365,1825008,2125008,365,-5002,7033,-936,-291,627,679,-0.610595703,0.858520508,-0.114257812,-17.7612305,38.269043,41.4428711
366,1830000,2130000,366,-5078,6996,-753,-341,640,692,-0.619873047,0.854003906,-0.0919189453,-20.8129883,39.0625,42.2363281
367,1835008,2135008,367,-5192,6767,-682,-367,636,692,-0.633789062,0.826049805,-0.0832519531,-22.3999023,38.8183594,42.2363281
368,1840000,2140000,368,-5353,6432,-652,-345,608,675,-0.653442383,0.78515625,-0.0795898438,-21.0571289,37.109375,41.1987305
369,1845008,2145008,369,-5577,6103,-584,-277,568,638,-0.680786133,0.744995117,-0.0712890625,-16.9067383,34.6679688,38.9404297
370,1850000,2150000,370,-5773,5777,-427,-196,530,581,-0.704711914,0.705200195,-0.0521240234,-11.9628906,32.3486328,35.4614258
371,1855008,2155008,371,-5900,5444,-294,-120,505,525,-0.720214844,0.664550781,-0.0358886719,-7.32421875,30.8227539,32.043457
372,1860000,2160000,372,-6036,5157,-270,-43,490,473,-0.736816406,0.629516602,-0.0329589844,-2.62451172,29.9072266,28.8696289
373,1865008,2165008,373,-6135,4957,-338,34,483,424,-0.748901367,0.605102539,-0.0412597656,2.07519531,29.4799805,25.8789062
374,1870000,2170000,374,-6161,4863,-542,102,480,382,-0.752075195,0.59362793,-0.0661621094,6.22558594,29.296875,23.3154297
375,1875008,2175008,375,-6215,4926,-772,166,477,347,-0.758666992,0.601318359,-0.0942382812,10.1318359,29.1137695,21.1791992
376,1880000,2180000,376,-6203,5050,-973,213,476,325,-0.757202148,0.616455078,-0.118774414,13.0004883,29.0527344,19.8364258
377,1885008,2185008,377,-6104,5215,-1187,236,472,317,-0.745117188,0.63659668,-0.144897461,14.4042969,28.8085938,19.3481445
378,1890000,2190000,378,-6000,5416,-1362,237,457,315,-0.732421875,0.661132812,-0.166259766,14.465332,27.8930664,19.2260742
379,1895008,2195008,379,-5842,5573,-1509,219,428,318,-0.713134766,0.680297852,-0.184204102,13.3666992,26.1230469,19.4091797
380,1900000,2200000,380,-5668,5749,-1661,200,402,330,-0.691894531,0.701782227,-0.202758789,12.2070312,24.5361328,20.1416016
381,1905008,2205008,381,-5533,5996,-1710,189,391,342,-0.675415039,0.731933594,-0.208740234,11.5356445,23.8647461,20.8740234
382,1910000,2210000,382,-5437,6203,-1634,165,383,352,-0.663696289,0.757202148,-0.199462891,10.0708008,23.3764648,21.484375
383,1915008,2215008,383,-5374,6295,-1544,128,384,360,-0.656005859,0.768432617,-0.188476562,7.8125,23.4375,21.9726562
384,1920000,2220000,384,-5342,6346,-1412,89,390,356,-0.652099609,0.774658203,-0.172363281,5.43212891,23.8037109,21.7285156
385,1925008,2225008,385,-5285,6345,-1271,50,377,352,-0.645141602,0.774536133,-0.155151367,3.05175781,23.0102539,21.484375
386,1930000,2230000,386,-5241,6306,-1194,19,353,354,-0.639770508,0.769775391,-0.145751953,1.15966797,21.5454102,21.6064453
387,1935008,2235008,387,-5253,6293,-1116,8,327,353,-0.641235352,0.768188477,-0.136230469,0.48828125,19.9584961,21.5454102
388,1940000,2240000,388,-5241,6274,-1013,12,295,348,-0.639770508,0.765869141,-0.123657227,0.732421875,18.0053711,21.2402344
389,1945008,2245008,389,-5197,6256,-914,19,272,336,-0.634399414,0.763671875,-0.111572266,1.15966797,16.6015625,20.5078125
390,1950000,2250000,390,-5179,6253,-845,31,267,324,-0.632202148,0.763305664,-0.103149414,1.89208984,16.2963867,19.7753906
391,1955008,2255008,391,-5190,6193,-843,53,283,315,-0.633544922,0.755981445,-0.102905273,3.23486328,17.2729492,19.2260742
392,1960000,2260000,392,-5186,6123,-888,77,313,298,-0.633056641,0.747436523,-0.108398438,4.69970703,19.1040039,18.1884766
393,1965008,2265008,393,-5139,6069,-986,104,338,287,-0.627319336,0.740844727,-0.120361328,6.34765625,20.6298828,17.5170898
394,1970000,2270000,394,-5107,6001,-1115,134,337,279,-0.623413086,0.732543945,-0.136108398,8.17871094,20.5688477,17.0288086
395,1975008,2275008,395,-5127,6003,-1215,166,334,266,-0.625854492,0.732788086,-0.14831543,10.1318359,20.3857422,16.2353516
396,1980000,2280000,396,-5152,6051,-1277,196,351,247,-0.62890625,0.738647461,-0.155883789,11.9628906,21.4233398,15.0756836
397,1985008,2285008,397,-5133,6077,-1336,218,360,222,-0.626586914,0.741821289,-0.163085938,13.3056641,21.9726562,13.5498047
398,1990000,2290000,398,-5145,6110,-1380,235,339,203,-0.628051758,0.745849609,-0.168457031,14.3432617,20.690918,12.3901367
399,1995008,2295008,399,-5277,6131,-1346,251,309,193,-0.644165039,0.748413086,-0.164306641,15.3198242,18.8598633,11.7797852
400,2000000,2300000,400,-5421,6096,-1299,267,286,180,-0.661743164,0.744140625,-0.158569336,16.2963867,17.4560547,10.9863281
401,2005008,2305008,401,-5491,6065,-1227,283,252,151,-0.670288086,0.740356445,-0.149780273,17.2729492,15.3808594,9.21630859
402,2010000,2310000,402,-5470,5989,-1145,292,199,130,-0.667724609,0.731079102,-0.139770508,17.8222656,12.1459961,7.93457031
403,2015008,2315008,403,-5497,5883,-1196,309,139,127,-0.671020508,0.718139648,-0.145996094,18.8598633,8.48388672,7.75146484
404,2020000,2320000,404,-5546,5880,-1157,334,92,115,-0.677001953,0.717773438,-0.141235352,20.3857422,5.61523438,7.01904297
405,2025008,2325008,405,-5472,5943,-951,316,67,94,-0.66796875,0.725463867,-0.116088867,19.2871094,4.08935547,5.73730469
406,2030000,2330000,406,-5345,5968,-825,250,52,71,-0.65246582,0.728515625,-0.100708008,15.2587891,3.17382812,4.33349609
407,2035008,2335008,407,-5271,5925,-788,180,36,46,-0.643432617,0.723266602,-0.0961914062,10.9863281,2.19726562,2.80761719
408,2040000,2340000,408,-5235,5841,-750,126,36,15,-0.639038086,0.713012695,-0.0915527344,7.69042969,2.19726562,0.915527344
409,2045008,2345008,409,-5227,5748,-722,87,53,-14,-0.638061523,0.701660156,-0.0881347656,5.31005859,3.23486328,-0.854492188
410,2050000,2350000,410,-5225,5700,-726,52,58,-39,-0.637817383,0.695800781,-0.0886230469,3.17382812,3.54003906,-2.38037109
411,2055008,2355008,411,-5338,5692,-783,25,50,-59,-0.651611328,0.694824219,-0.0955810547,1.52587891,3.05175781,-3.60107422
412,2060000,2360000,412,-5507,5679,-879,8,34,-72,-0.672241211,0.693237305,-0.107299805,0.48828125,2.07519531,-4.39453125
413,2065008,2365008,413,-5598,5658,-967,-2,5,-87,-0.683349609,0.690673828,-0.118041992,-0.122070312,0.305175781,-5.31005859
414,2070000,2370000,414,-5640,5635,-1042,-3,-37,-100,-0.688476562,0.687866211,-0.127197266,-0.183105469,-2.25830078,-6.10351562
415,2075008,2375008,415,-5614,5623,-1087,2,-83,-112,-0.685302734,0.686401367,-0.13269043,0.122070312,-5.06591797,-6.8359375
416,2080000,2380000,416,-5550,5615,-1108,11,-124,-125,-0.677490234,0.685424805,-0.135253906,0.671386719,-7.56835938,-7.62939453
417,2085008,2385008,417,-5449,5618,-1107,25,-157,-137,-0.665161133,0.685791016,-0.135131836,1.52587891,-9.58251953,-8.36181641
418,2090000,2390000,418,-5351,5638,-1085,35,-181,-148,-0.653198242,0.688232422,-0.132446289,2.13623047,-11.0473633,-9.03320312
419,2095008,2395008,419,-5280,5660,-1076,37,-192,-157,-0.64453125,0.690917969,-0.131347656,2.25830078,-11.71875,-9.58251953
420,2100000,2400000,420,-5253,5686,-1088,34,-197,-165,-0.641235352,0.694091797,-0.1328125,2.07519531,-12.0239258,-10.0708008
421,2105008,2405008,421,-5256,5721,-1091,24,-204,-169,-0.641601562,0.698364258,-0.133178711,1.46484375,-12.4511719,-10.3149414
422,2110000,2410000,422,-5257,5763,-1108,2,-216,-171,-0.641723633,0.703491211,-0.135253906,0.122070312,-13.1835938,-10.4370117
423,2115008,2415008,423,-5246,5799,-1151,-25,-233,-171,-0.640380859,0.707885742,-0.14050293,-1.52587891,-14.2211914,-10.4370117
424,2120000,2420000,424,-5245,5834,-1181,-47,-253,-169,-0.640258789,0.712158203,-0.144165039,-2.86865234,-15.4418945,-10.3149414
425,2125008,2425008,425,-5253,5883,-1193,-61,-274,-165,-0.641235352,0.718139648,-0.145629883,-3.72314453,-16.7236328,-10.0708008
426,2130000,2430000,426,-5258,5954,-1181,-71,-293,-163,-0.641845703,0.726806641,-0.144165039,-4.33349609,-17.8833008,-9.94873047
427,2135008,2435008,427,-5272,6038,-1160,-80,-309,-162,-0.643554688,0.737060547,-0.141601562,-4.8828125,-18.8598633,-9.88769531
428,2140000,2440000,428,-5300,6110,-1134,-87,-321,-163,-0.646972656,0.745849609,-0.138427734,-5.31005859,-19.5922852,-9.94873047
429,2145008,2445008,429,-5318,6162,-1106,-91,-329,-168,-0.649169922,0.752197266,-0.135009766,-5.55419922,-20.0805664,-10.2539062
430,2150000,2450000,430,-5309,6193,-1089,-90,-335,-173,-0.648071289,0.755981445,-0.13293457,-5.49316406,-20.4467773,-10.559082
431,2155008,2455008,431,-5302,6195,-1074,-81,-339,-178,-0.647216797,0.756225586,-0.131103516,-4.94384766,-20.690918,-10.8642578
432,2160000,2460000,432,-5308,6178,-1070,-64,-343,-184,-0.647949219,0.754150391,-0.130615234,-3.90625,-20.9350586,-11.2304688
433,2165008,2465008,433,-5323,6160,-1083,-42,-349,-191,-0.649780273,0.751953125,-0.132202148,-2.56347656,-21.3012695,-11.6577148
434,2170000,2470000,434,-5347,6148,-1083,-21,-356,-201,-0.652709961,0.750488281,-0.132202148,-1.28173828,-21.7285156,-12.2680664
435,2175008,2475008,435,-5376,6127,-1097,-1,-361,-213,-0.65625,0.747924805,-0.133911133,-0.0610351562,-22.0336914,-13.0004883
436,2180000,2480000,436,-5422,6088,-1153,23,-363,-230,-0.661865234,0.743164062,-0.14074707,1.40380859,-22.1557617,-14.0380859
437,2185008,2485008,437,-5503,6054,-1187,52,-369,-254,-0.67175293,0.739013672,-0.144897461,3.17382812,-22.5219727,-15.5029297
438,2190000,2490000,438,-5604,6014,-1204,80,-383,-282,-0.684082031,0.734130859,-0.146972656,4.8828125,-23.3764648,-17.2119141
439,2195008,2495008,439,-5702,5969,-1202,104,-409,-314,-0.696044922,0.728637695,-0.146728516,6.34765625,-24.9633789,-19.1650391
440,2200000,2500000,440,-5801,5911,-1178,124,-446,-350,-0.708129883,0.721557617,-0.143798828,7.56835938,-27.2216797,-21.3623047
441,2205008,2505008,441,-5924,5827,-1135,147,-487,-390,-0.723144531,0.711303711,-0.138549805,8.97216797,-29.7241211,-23.8037109
442,2210000,2510000,442,-6065,5723,-1071,174,-533,-435,-0.740356445,0.698608398,-0.130737305,10.6201172,-32.5317383,-26.550293
443,2215008,2515008,443,-6201,5599,-1010,203,-580,-484,-0.756958008,0.68347168,-0.123291016,12.3901367,-35.4003906,-29.5410156
444,2220000,2520000,444,-6332,5469,-939,237,-624,-537,-0.772949219,0.667602539,-0.114624023,14.465332,-38.0859375,-32.7758789
445,2225008,2525008,445,-6445,5330,-876,274,-667,-592,-0.786743164,0.650634766,-0.106933594,16.7236328,-40.7104492,-36.1328125
446,2230000,2530000,446,-6503,5190,-808,312,-715,-646,-0.793823242,0.633544922,-0.0986328125,19.0429688,-43.6401367,-39.4287109
447,2235008,2535008,447,-6543,5075,-733,345,-760,-694,-0.798706055,0.619506836,-0.0894775391,21.0571289,-46.3867188,-42.3583984
448,2240000,2540000,448,-6559,5003,-679,367,-799,-738,-0.80065918,0.610717773,-0.0828857422,22.3999023,-48.7670898,-45.0439453
449,2245008,2545008,449,-6502,4988,-614,369,-837,-777,-0.793701172,0.608886719,-0.0749511719,22.5219727,-51.0864258,-47.4243164
450,2250000,2550000,450,-6396,5034,-535,344,-872,-805,-0.780761719,0.614501953,-0.0653076172,20.9960938,-53.2226562,-49.1333008
451,2255008,2555008,451,-6243,5107,-446,292,-896,-823,-0.762084961,0.623413086,-0.0544433594,17.8222656,-54.6875,-50.2319336
452,2260000,2560000,452,-6085,5225,-342,208,-905,-834,-0.742797852,0.637817383,-0.0417480469,12.6953125,-55.2368164,-50.9033203
453,2265008,2565008,453,-5899,5368,-235,92,-899,-840,-0.720092773,0.655273438,-0.0286865234,5.61523438,-54.8706055,-51.2695312
454,2270000,2570000,454,-5788,5484,-172,-34,-888,-832,-0.706542969,0.669433594,-0.0209960938,-2.07519531,-54.1992188,-50.78125
455,2275008,2575008,455,-5803,5610,-103,-145,-875,-822,-0.708374023,0.684814453,-0.0125732422,-8.85009766,-53.4057617,-50.1708984
456,2280000,2580000,456,-5797,5725,21,-249,-863,-822,-0.707641602,0.698852539,0.00256347656,-15.1977539,-52.6733398,-50.1708984
457,2285008,2585008,457,-5835,5790,101,-349,-850,-827,-0.712280273,0.706787109,0.0123291016,-21.3012695,-51.8798828,-50.4760742
458,2290000,2590000,458,-5934,5836,135,-435,-835,-836,-0.724365234,0.712402344,0.0164794922,-26.550293,-50.9643555,-51.0253906
459,2295008,2595008,459,-6062,5885,170,-515,-813,-847,-0.739990234,0.718383789,0.0207519531,-31.4331055,-49.621582,-51.6967773
460,2300000,2600000,460,-6156,5943,119,-594,-798,-861,-0.751464844,0.725463867,0.0145263672,-36.2548828,-48.7060547,-52.5512695
461,2305008,2605008,461,-6191,5991,-23,-650,-802,-880,-0.755737305,0.731323242,-0.00280761719,-39.6728516,-48.9501953,-53.7109375
462,2310000,2610000,462,-6246,6041,-182,-667,-812,-896,-0.762451172,0.737426758,-0.0222167969,-40.7104492,-49.5605469,-54.6875
463,2315008,2615008,463,-6279,6132,-326,-653,-816,-921,-0.766479492,0.748535156,-0.0397949219,-39.855957,-49.8046875,-56.2133789
464,2320000,2620000,464,-6253,6205,-411,-629,-815,-953,-0.763305664,0.757446289,-0.0501708984,-38.3911133,-49.7436523,-58.1665039
465,2325008,2625008,465,-6262,6172,-535,-594,-795,-986,-0.764404297,0.753417969,-0.0653076172,-36.2548828,-48.5229492,-60.1806641
466,2330000,2630000,466,-6313,6111,-718,-530,-744,-1029,-0.770629883,0.74597168,-0.0876464844,-32.3486328,-45.4101562,-62.8051758
467,2335008,2635008,467,-6361,6090,-839,-448,-681,-1074,-0.776489258,0.743408203,-0.102416992,-27.34375,-41.5649414,-65.5517578
468,2340000,2640000,468,-6471,6073,-889,-383,-621,-1124,-0.789916992,0.741333008,-0.108520508,-23.3764648,-37.902832,-68.6035156
469,2345008,2645008,469,-6623,6041,-916,-350,-573,-1178,-0.80847168,0.737426758,-0.111816406,-21.3623047,-34.9731445,-71.8994141
470,2350000,2650000,470,-6759,5978,-949,-347,-547,-1226,-0.825073242,0.729736328,-0.115844727,-21.1791992,-33.3862305,-74.8291016
471,2355008,2655008,471,-6872,5908,-953,-360,-550,-1262,-0.838867188,0.721191406,-0.116333008,-21.9726562,-33.5693359,-77.0263672
472,2360000,2660000,472,-6907,5856,-864,-384,-578,-1280,-0.843139648,0.71484375,-0.10546875,-23.4375,-35.2783203,-78.125
473,2365008,2665008,473,-6822,5830,-696,-427,-627,-1280,-0.832763672,0.711669922,-0.0849609375,-26.0620117,-38.269043,-78.125
474,2370000,2670000,474,-6703,5813,-535,-485,-683,-1273,-0.818237305,0.709594727,-0.0653076172,-29.6020508,-41.6870117,-77.6977539
475,2375008,2675008,475,-6523,5764,-449,-525,-710,-1266,-0.796264648,0.703613281,-0.0548095703,-32.043457,-43.3349609,-77.2705078
476,2380000,2680000,476,-6276,5650,-467,-515,-706,-1260,-0.766113281,0.689697266,-0.0570068359,-31.4331055,-43.0908203,-76.9042969
477,2385008,2685008,477,-6066,5492,-543,-457,-697,-1253,-0.740478516,0.670410156,-0.0662841797,-27.8930664,-42.5415039,-76.4770508
478,2390000,2690000,478,-5912,5381,-558,-395,-690,-1245,-0.721679688,0.656860352,-0.0681152344,-24.1088867,-42.1142578,-75.9887695
479,2395008,2695008,479,-5790,5256,-585,-359,-673,-1236,-0.706787109,0.641601562,-0.0714111328,-21.9116211,-41.0766602,-75.4394531
480,2400000,2700000,480,-5725,5067,-713,-323,-646,-1221,-0.698852539,0.618530273,-0.0870361328,-19.7143555,-39.4287109,-74.5239258
481,2405008,2705008,481,-5739,4887,-857,-271,-621,-1204,-0.700561523,0.596557617,-0.104614258,-16.5405273,-37.902832,-73.4863281
482,2410000,2710000,482,-5856,4750,-1019,-200,-611,-1188,-0.71484375,0.579833984,-0.124389648,-12.2070312,-37.2924805,-72.5097656
483,2415008,2715008,483,-6021,4649,-1165,-109,-614,-1173,-0.734985352,0.567504883,-0.142211914,-6.65283203,-37.4755859,-71.5942383
484,2420000,2720000,484,-6147,4590,-1266,-7,-631,-1154,-0.750366211,0.560302734,-0.154541016,-0.427246094,-38.5131836,-70.4345703
485,2425008,2725008,485,-6268,4613,-1305,92,-653,-1132,-0.765136719,0.563110352,-0.159301758,5.61523438,-39.855957,-69.0917969
486,2430000,2730000,486,-6332,4628,-1293,171,-677,-1102,-0.772949219,0.564941406,-0.157836914,10.4370117,-41.3208008,-67.2607422
487,2435008,2735008,487,-6369,4614,-1290,236,-712,-1075,-0.77746582,0.563232422,-0.157470703,14.4042969,-43.4570312,-65.612793
488,2440000,2740000,488,-6414,4611,-1247,306,-745,-1052,-0.782958984,0.562866211,-0.15222168,18.6767578,-45.4711914,-64.2089844
489,2445008,2745008,489,-6494,4622,-1191,387,-758,-1027,-0.792724609,0.564208984,-0.145385742,23.6206055,-46.2646484,-62.6831055
490,2450000,2750000,490,-6564,4630,-1171,480,-762,-1008,-0.801269531,0.565185547,-0.142944336,29.296875,-46.5087891,-61.5234375
491,2455008,2755008,491,-6581,4615,-1118,578,-782,-987,-0.803344727,0.563354492,-0.136474609,35.2783203,-47.7294922,-60.2416992
492,2460000,2760000,492,-6587,4607,-997,672,-827,-959,-0.804077148,0.56237793,-0.121704102,41.015625,-50.4760742,-58.5327148
493,2465008,2765008,493,-6516,4659,-827,760,-884,-918,-0.795410156,0.568725586,-0.100952148,46.3867188,-53.9550781,-56.0302734
494,2470000,2770000,494,-6494,4761,-728,850,-937,-860,-0.792724609,0.581176758,-0.0888671875,51.8798828,-57.1899414,-52.4902344
495,2475008,2775008,495,-6590,4879,-605,930,-971,-812,-0.804443359,0.595581055,-0.0738525391,56.7626953,-59.2651367,-49.5605469
496,2480000,2780000,496,-6641,4987,-449,969,-986,-775,-0.810668945,0.608764648,-0.0548095703,59.1430664,-60.1806641,-47.3022461
497,2485008,2785008,497,-6670,5044,-432,980,-998,-728,-0.814208984,0.615722656,-0.052734375,59.8144531,-60.9130859,-44.4335938
498,2490000,2790000,498,-6662,5142,-478,994,-1010,-677,-0.813232422,0.627685547,-0.0583496094,60.6689453,-61.6455078,-41.3208008
499,2495008,2795008,499,-6681,5387,-414,1007,-1026,-624,-0.815551758,0.657592773,-0.0505371094,61.4624023,-62.6220703,-38.0859375
500,2500000,2800000,500,-6679,5653,-254,982,-1046,-582,-0.815307617,0.690063477,-0.0310058594,59.9365234,-63.8427734,-35.5224609
501,2505008,2805008,501,-6544,5738,-162,932,-1050,-552,-0.798828125,0.700439453,-0.0197753906,56.8847656,-64.0869141,-33.6914062
502,2510000,2810000,502,-6436,5740,-62,896,-1026,-526,-0.785644531,0.700683594,-0.00756835938,54.6875,-62.6220703,-32.1044922
503,2515008,2815008,503,-6345,5762,107,859,-987,-499,-0.774536133,0.703369141,0.0130615234,52.4291992,-60.2416992,-30.456543
504,2520000,2820000,504,-6273,5869,270,787,-940,-475,-0.76574707,0.716430664,0.0329589844,48.034668,-57.3730469,-28.9916992
505,2525008,2825008,505,-6269,5932,265,710,-891,-443,-0.765258789,0.724121094,0.0323486328,43.3349609,-54.3823242,-27.0385742
506,2530000,2830000,506,-6309,5792,170,662,-849,-402,-0.770141602,0.70703125,0.0207519531,40.4052734,-51.8188477,-24.5361328
507,2535008,2835008,507,-6350,5594,110,628,-815,-370,-0.775146484,0.682861328,0.0134277344,38.3300781,-49.7436523,-22.5830078
508,2540000,2840000,508,-6308,5432,22,606,-794,-341,-0.770019531,0.663085938,0.00268554688,36.9873047,-48.4619141,-20.8129883
509,2545008,2845008,509,-6271,5307,8,594,-772,-322,-0.76550293,0.647827148,0.0009765625,36.2548828,-47.1191406,-19.6533203
510,2550000,2850000,510,-6408,5157,35,594,-742,-295,-0.782226562,0.629516602,0.00427246094,36.2548828,-45.2880859,-18.0053711
511,2555008,2855008,511,-6637,5016,74,607,-727,-269,-0.810180664,0.612304688,0.00903320312,37.0483398,-44.3725586,-16.418457
512,2560000,2860000,512,-6766,4951,155,614,-718,-257,-0.825927734,0.604370117,0.0189208984,37.4755859,-43.8232422,-15.6860352
513,2565008,2865008,513,-6786,4953,166,599,-707,-246,-0.828369141,0.604614258,0.0202636719,36.5600586,-43.1518555,-15.0146484
514,2570000,2870000,514,-6843,4956,131,568,-693,-250,-0.835327148,0.604980469,0.0159912109,34.6679688,-42.2973633,-15.2587891
515,2575008,2875008,515,-6854,4832,60,542,-664,-269,-0.836669922,0.58984375,0.00732421875,33.0810547,-40.5273438,-16.418457
516,2580000,2880000,516,-6906,4601,-25,526,-650,-281,-0.843017578,0.561645508,-0.00305175781,32.1044922,-39.6728516,-17.1508789
517,2585008,2885008,517,-7049,4365,-88,522,-662,-284,-0.860473633,0.532836914,-0.0107421875,31.8603516,-40.4052734,-17.3339844
518,2590000,2890000,518,-7182,4211,-169,535,-677,-295,-0.876708984,0.514038086,-0.0206298828,32.6538086,-41.3208008,-18.0053711
519,2595008,2895008,519,-7164,4159,-193,554,-694,-310,-0.874511719,0.50769043,-0.0235595703,33.8134766,-42.3583984,-18.9208984
520,2600000,2900000,520,-7001,4119,-172,558,-718,-305,-0.854614258,0.502807617,-0.0209960938,34.0576172,-43.8232422,-18.6157227
521,2605008,2905008,521,-6975,4060,-178,571,-742,-268,-0.85144043,0.495605469,-0.0217285156,34.8510742,-45.2880859,-16.3574219
522,2610000,2910000,522,-6987,4051,-114,605,-768,-232,-0.852905273,0.494506836,-0.0139160156,36.9262695,-46.875,-14.1601562
523,2615008,2915008,523,-6864,4073,35,627,-794,-211,-0.837890625,0.497192383,0.00427246094,38.269043,-48.4619141,-12.878418
524,2620000,2920000,524,-6740,4113,156,626,-806,-197,-0.822753906,0.502075195,0.0190429688,38.2080078,-49.1943359,-12.0239258
525,2625008,2925008,525,-6601,4126,170,620,-801,-187,-0.805786133,0.503662109,0.0207519531,37.8417969,-48.8891602,-11.4135742
526,2630000,2930000,526,-6450,4129,150,621,-798,-177,-0.787353516,0.50402832,0.0183105469,37.902832,-48.7060547,-10.8032227
527,2635008,2935008,527,-6292,4143,148,618,-783,-174,-0.768066406,0.505737305,0.0180664062,37.7197266,-47.7905273,-10.6201172
528,2640000,2940000,528,-6269,4118,97,617,-752,-161,-0.765258789,0.502685547,0.0118408203,37.6586914,-45.8984375,-9.82666016
529,2645008,2945008,529,-6464,4154,78,636,-726,-150,-0.7890625,0.507080078,0.00952148438,38.8183594,-44.3115234,-9.15527344
530,2650000,2950000,530,-6543,4216,121,656,-706,-143,-0.798706055,0.514648438,0.0147705078,40.0390625,-43.0908203,-8.72802734
531,2655008,2955008,531,-6564,4284,149,669,-704,-125,-0.801269531,0.522949219,0.0181884766,40.8325195,-42.96875,-7.62939453
532,2660000,2960000,532,-6649,4336,216,688,-711,-108,-0.811645508,0.529296875,0.0263671875,41.9921875,-43.3959961,-6.59179688
533,2665008,2965008,533,-6666,4368,368,688,-705,-98,-0.813720703,0.533203125,0.044921875,41.9921875,-43.0297852,-5.98144531
534,2670000,2970000,534,-6609,4443,475,663,-688,-87,-0.806762695,0.542358398,0.0579833984,40.4663086,-41.9921875,-5.31005859
535,2675008,2975008,535,-6538,4506,475,631,-652,-80,-0.798095703,0.550048828,0.0579833984,38.5131836,-39.7949219,-4.8828125
536,2680000,2980000,536,-6528,4538,433,603,-600,-72,-0.796875,0.553955078,0.0528564453,36.8041992,-36.6210938,-4.39453125
537,2685008,2985008,537,-6636,4560,380,578,-561,-55,-0.810058594,0.556640625,0.0463867188,35.2783203,-34.2407227,-3.35693359
538,2690000,2990000,538,-6782,4632,379,551,-545,-40,-0.827880859,0.565429688,0.0462646484,33.6303711,-33.2641602,-2.44140625
539,2695008,2995008,539,-6884,4713,420,523,-542,-19,-0.840332031,0.575317383,0.0512695312,31.9213867,-33.0810547,-1.15966797
540,2700000,3000000,540,-6927,4733,480,494,-548,3,-0.845581055,0.577758789,0.05859375,30.1513672,-33.4472656,0.183105469
541,2705008,3005008,541,-6988,4740,556,463,-561,10,-0.853027344,0.578613281,0.0678710938,28.2592773,-34.2407227,0.610351562
542,2710000,3010000,542,-7011,4751,617,433,-568,12,-0.855834961,0.579956055,0.0753173828,26.4282227,-34.6679688,0.732421875
543,2715008,3015008,543,-6894,4707,607,402,-575,19,-0.841552734,0.574584961,0.0740966797,24.5361328,-35.0952148,1.15966797
544,2720000,3020000,544,-6770,4666,563,368,-582,32,-0.826416016,0.569580078,0.0687255859,22.4609375,-35.5224609,1.953125
545,2725008,3025008,545,-6760,4689,565,329,-568,37,-0.825195312,0.572387695,0.0689697266,20.0805664,-34.6679688,2.25830078
546,2730000,3030000,546,-6805,4663,543,285,-542,29,-0.830688477,0.569213867,0.0662841797,17.3950195,-33.0810547,1.77001953
547,2735008,3035008,547,-6884,4615,453,254,-523,16,-0.840332031,0.563354492,0.0552978516,15.5029297,-31.9213867,0.9765625
548,2740000,3040000,548,-6932,4587,384,237,-499,0,-0.846191406,0.559936523,0.046875,14.465332,-30.456543,0
549,2745008,3045008,549,-6934,4581,342,223,-474,-15,-0.846435547,0.559204102,0.0417480469,13.6108398,-28.9306641,-0.915527344
550,2750000,3050000,550,-6902,4598,354,207,-453,-27,-0.842529297,0.561279297,0.0432128906,12.6342773,-27.6489258,-1.64794922
551,2755008,3055008,551,-6737,4532,386,178,-433,-37,-0.822387695,0.553222656,0.0471191406,10.8642578,-26.4282227,-2.25830078
552,2760000,3060000,552,-6675,4470,357,154,-410,-39,-0.814819336,0.545654297,0.0435791016,9.39941406,-25.0244141,-2.38037109
553,2765008,3065008,553,-6809,4457,343,139,-378,-44,-0.831176758,0.544067383,0.0418701172,8.48388672,-23.0712891,-2.68554688
554,2770000,3070000,554,-6869,4384,288,136,-347,-56,-0.838500977,0.53515625,0.03515625,8.30078125,-21.1791992,-3.41796875
555,2775008,3075008,555,-6853,4301,266,150,-339,-61,-0.836547852,0.525024414,0.0324707031,9.15527344,-20.690918,-3.72314453
556,2780000,3080000,556,-6748,4221,347,154,-348,-60,-0.823730469,0.515258789,0.0423583984,9.39941406,-21.2402344,-3.66210938
557,2785008,3085008,557,-6642,4183,420,145,-356,-52,-0.810791016,0.510620117,0.0512695312,8.85009766,-21.7285156,-3.17382812
558,2790000,3090000,558,-6606,4236,466,146,-344,-51,-0.806396484,0.517089844,0.0568847656,8.91113281,-20.9960938,-3.11279297
559,2795008,3095008,559,-6498,4240,508,149,-329,-45,-0.793212891,0.517578125,0.0620117188,9.09423828,-20.0805664,-2.74658203
560,2800000,3100000,560,-6509,4199,531,143,-322,-33,-0.794555664,0.512573242,0.0648193359,8.72802734,-19.6533203,-2.01416016
561,2805008,3105008,561,-6611,4186,491,144,-311,-30,-0.807006836,0.510986328,0.0599365234,8.7890625,-18.9819336,-1.83105469
562,2810000,3110000,562,-6605,4189,468,156,-306,-26,-0.806274414,0.511352539,0.0571289062,9.52148438,-18.6767578,-1.58691406
563,2815008,3115008,563,-6590,4242,513,167,-299,-18,-0.804443359,0.517822266,0.0626220703,10.1928711,-18.2495117,-1.09863281
564,2820000,3120000,564,-6644,4313,563,165,-279,-12,-0.811035156,0.526489258,0.0687255859,10.0708008,-17.0288086,-0.732421875
565,2825008,3125008,565,-6681,4328,592,161,-260,-9,-0.815551758,0.528320312,0.072265625,9.82666016,-15.8691406,-0.549316406
566,2830000,3130000,566,-6672,4341,628,154,-239,-8,-0.814453125,0.529907227,0.0766601562,9.39941406,-14.5874023,-0.48828125
567,2835008,3135008,567,-6673,4394,646,139,-210,-8,-0.814575195,0.536376953,0.0788574219,8.48388672,-12.8173828,-0.48828125
568,2840000,3140000,568,-6661,4448,624,121,-181,-7,-0.813110352,0.54296875,0.076171875,7.38525391,-11.0473633,-0.427246094
569,2845008,3145008,569,-6687,4494,644,103,-161,-5,-0.81628418,0.548583984,0.0786132812,6.28662109,-9.82666016,-0.305175781
570,2850000,3150000,570,-6728,4506,678,85,-138,-9,-0.821289062,0.550048828,0.0827636719,5.18798828,-8.42285156,-0.549316406
571,2855008,3155008,571,-6730,4500,688,68,-116,-13,-0.821533203,0.549316406,0.083984375,4.15039062,-7.08007812,-0.793457031
572,2860000,3160000,572,-6751,4515,689,55,-94,-20,-0.82409668,0.551147461,0.0841064453,3.35693359,-5.73730469,-1.22070312
573,2865008,3165008,573,-6749,4528,701,44,-70,-25,-0.823852539,0.552734375,0.0855712891,2.68554688,-4.27246094,-1.52587891
574,2870000,3170000,574,-6737,4521,749,26,-51,-28,-0.822387695,0.551879883,0.0914306641,1.58691406,-3.11279297,-1.70898438
575,2875008,3175008,575,-6752,4494,779,5,-34,-30,-0.82421875,0.548583984,0.0950927734,0.305175781,-2.07519531,-1.83105469
576,2880000,3180000,576,-6749,4457,782,-14,-22,-30,-0.823852539,0.544067383,0.0954589844,-0.854492188,-1.34277344,-1.83105469
577,2885008,3185008,577,-6738,4420,774,-28,-14,-28,-0.822509766,0.539550781,0.0944824219,-1.70898438,-0.854492188,-1.70898438
578,2890000,3190000,578,-6731,4388,769,-36,-8,-25,-0.821655273,0.535644531,0.0938720703,-2.19726562,-0.48828125,-1.52587891
579,2895008,3195008,579,-6723,4365,787,-37,-3,-24,-0.820678711,0.532836914,0.0960693359,-2.25830078,-0.183105469,-1.46484375
580,2900000,3200000,580,-6737,4349,805,-36,4,-22,-0.822387695,0.530883789,0.0982666016,-2.19726562,0.244140625,-1.34277344
581,2905008,3205008,581,-6776,4340,812,-35,10,-18,-0.827148438,0.529785156,0.0991210938,-2.13623047,0.610351562,-1.09863281
582,2910000,3210000,582,-6787,4362,823,-34,17,-13,-0.828491211,0.532470703,0.100463867,-2.07519531,1.03759766,-0.793457031
583,2915008,3215008,583,-6772,4410,839,-37,29,-9,-0.826660156,0.538330078,0.102416992,-2.25830078,1.77001953,-0.549316406
584,2920000,3220000,584,-6771,4451,846,-48,47,-6,-0.826538086,0.543334961,0.103271484,-2.9296875,2.86865234,-0.366210938
585,2925008,3225008,585,-6783,4471,838,-63,67,-3,-0.82800293,0.545776367,0.102294922,-3.84521484,4.08935547,-0.183105469
586,2930000,3230000,586,-6797,4468,803,-77,85,-4,-0.829711914,0.545410156,0.0980224609,-4.69970703,5.18798828,-0.244140625
587,2935008,3235008,587,-6801,4452,779,-87,101,-4,-0.830200195,0.543457031,0.0950927734,-5.31005859,6.16455078,-0.244140625
588,2940000,3240000,588,-6795,4441,767,-95,118,-3,-0.829467773,0.542114258,0.0936279297,-5.79833984,7.20214844,-0.183105469
589,2945008,3245008,589,-6790,4440,747,-101,137,0,-0.828857422,0.541992188,0.0911865234,-6.16455078,8.36181641,0
590,2950000,3250000,590,-6784,4447,733,-110,158,4,-0.828125,0.54284668,0.0894775391,-6.71386719,9.64355469,0.244140625
591,2955008,3255008,591,-6786,4465,733,-124,180,6,-0.828369141,0.545043945,0.0894775391,-7.56835938,10.9863281,0.366210938
592,2960000,3260000,592,-6788,4480,750,-146,202,9,-0.828613281,0.546875,0.0915527344,-8.91113281,12.3291016,0.549316406
593,2965008,3265008,593,-6789,4484,749,-173,222,12,-0.828735352,0.547363281,0.0914306641,-10.559082,13.5498047,0.732421875
594,2970000,3270000,594,-6786,4468,723,-201,241,15,-0.828369141,0.545410156,0.0882568359,-12.2680664,14.7094727,0.915527344
595,2975008,3275008,595,-6796,4457,691,-224,261,17,-0.829589844,0.544067383,0.0843505859,-13.671875,15.9301758,1.03759766
596,2980000,3280000,596,-6808,4467,667,-243,283,19,-0.831054688,0.545288086,0.0814208984,-14.831543,17.2729492,1.15966797
597,2985008,3285008,597,-6791,4483,670,-262,304,25,-0.828979492,0.547241211,0.0817871094,-15.9912109,18.5546875,1.52587891
598,2990000,3290000,598,-6765,4496,678,-282,328,33,-0.825805664,0.548828125,0.0827636719,-17.2119141,20.0195312,2.01416016
599,2995008,3295008,599,-6764,4525,683,-304,357,43,-0.825683594,0.552368164,0.0833740234,-18.5546875,21.7895508,2.62451172
600,3000000,3300000,600,-6763,4575,682,-331,392,57,-0.825561523,0.55847168,0.0832519531,-20.2026367,23.9257812,3.47900391
601,3005008,3305008,601,-6703,4632,679,-368,428,74,-0.818237305,0.565429688,0.0828857422,-22.4609375,26.1230469,4.51660156
602,3010000,3310000,602,-6586,4694,696,-421,464,101,-0.803955078,0.572998047,0.0849609375,-25.6958008,28.3203125,6.16455078
603,3015008,3315008,603,-6468,4739,706,-488,514,132,-0.789550781,0.578491211,0.0861816406,-29.7851562,31.3720703,8.05664062
604,3020000,3320000,604,-6406,4734,673,-557,577,156,-0.781982422,0.577880859,0.0821533203,-33.996582,35.2172852,9.52148438
605,3025008,3325008,605,-6357,4683,581,-618,635,183,-0.776000977,0.571655273,0.0709228516,-37.7197266,38.7573242,11.1694336
606,3030000,3330000,606,-6303,4625,481,-660,677,211,-0.76940918,0.564575195,0.0587158203,-40.2832031,41.3208008,12.878418
607,3035008,3335008,607,-6312,4618,399,-682,712,236,-0.770507812,0.563720703,0.0487060547,-41.6259766,43.4570312,14.4042969
608,3040000,3340000,608,-6320,4634,327,-698,742,262,-0.771484375,0.565673828,0.0399169922,-42.6025391,45.2880859,15.9912109
609,3045008,3345008,609,-6294,4641,271,-711,756,285,-0.768310547,0.56652832,0.0330810547,-43.3959961,46.1425781,17.3950195
610,3050000,3350000,610,-6284,4652,241,-721,762,300,-0.767089844,0.567871094,0.0294189453,-44.0063477,46.5087891,18.3105469
611,3055008,3355008,611,-6278,4641,239,-724,773,313,-0.766357422,0.56652832,0.0291748047,-44.1894531,47.1801758,19.1040039
612,3060000,3360000,612,-6278,4624,238,-719,795,326,-0.766357422,0.564453125,0.0290527344,-43.8842773,48.5229492,19.8974609
613,3065008,3365008,613,-6300,4643,220,-705,821,340,-0.769042969,0.566772461,0.0268554688,-43.0297852,50.1098633,20.7519531
614,3070000,3370000,614,-6304,4712,221,-691,853,351,-0.76953125,0.575195312,0.0269775391,-42.175293,52.0629883,21.4233398
615,3075008,3375008,615,-6288,4794,229,-686,884,363,-0.767578125,0.585205078,0.0279541016,-41.8701172,53.9550781,22.1557617
616,3080000,3380000,616,-6325,4836,224,-697,915,379,-0.772094727,0.590332031,0.02734375,-42.5415039,55.847168,23.1323242
617,3085008,3385008,617,-6425,4843,147,-712,955,387,-0.784301758,0.591186523,0.0179443359,-43.4570312,58.2885742,23.6206055
618,3090000,3390000,618,-6434,4842,1,-704,992,395,-0.785400391,0.591064453,0.000122070312,-42.96875,60.546875,24.1088867
619,3095008,3395008,619,-6400,4863,-60,-693,1019,412,-0.78125,0.59362793,-0.00732421875,-42.2973633,62.1948242,25.1464844
620,3100000,3400000,620,-6425,4909,-64,-709,1044,433,-0.784301758,0.599243164,-0.0078125,-43.2739258,63.7207031,26.4282227
621,3105008,3405008,621,-6402,4931,-94,-742,1070,471,-0.781494141,0.601928711,-0.0114746094,-45.2880859,65.3076172,28.7475586
622,3110000,3410000,622,-6420,4937,-125,-794,1095,515,-0.783691406,0.602661133,-0.0152587891,-48.4619141,66.8334961,31.4331055
623,3115008,3415008,623,-6518,4912,-198,-847,1115,544,-0.795654297,0.599609375,-0.0241699219,-51.6967773,68.0541992,33.203125
624,3120000,3420000,624,-6557,4888,-294,-877,1110,563,-0.800415039,0.596679688,-0.0358886719,-53.527832,67.7490234,34.362793
625,3125008,3425008,625,-6500,4840,-310,-893,1080,588,-0.793457031,0.590820312,-0.0378417969,-54.5043945,65.9179688,35.8886719
626,3130000,3430000,626,-6481,4743,-301,-892,1043,625,-0.791137695,0.578979492,-0.0367431641,-54.4433594,63.659668,38.1469727
627,3135008,3435008,627,-6475,4685,-306,-863,995,660,-0.790405273,0.571899414,-0.0373535156,-52.6733398,60.7299805,40.2832031
628,3140000,3440000,628,-6512,4689,-276,-806,950,699,-0.794921875,0.572387695,-0.0336914062,-49.1943359,57.9833984,42.6635742
629,3145008,3445008,629,-6691,4774,-221,-728,905,742,-0.816772461,0.582763672,-0.0269775391,-44.4335938,55.2368164,45.2880859
630,3150000,3450000,630,-6843,4904,-117,-638,852,769,-0.835327148,0.598632812,-0.0142822266,-38.9404297,52.0019531,46.9360352
631,3155008,3455008,631,-6806,4978,10,-563,807,780,-0.830810547,0.607666016,0.00122070312,-34.362793,49.2553711,47.6074219
632,3160000,3460000,632,-6710,5023,87,-514,775,789,-0.819091797,0.61315918,0.0106201172,-31.3720703,47.3022461,48.1567383
633,3165008,3465008,633,-6715,5114,178,-474,759,799,-0.819702148,0.624267578,0.0217285156,-28.9306641,46.3256836,48.7670898
634,3170000,3470000,634,-6745,5218,301,-446,771,797,-0.823364258,0.636962891,0.0367431641,-27.2216797,47.0581055,48.6450195
635,3175008,3475008,635,-6715,5329,419,-444,811,791,-0.819702148,0.650512695,0.0511474609,-27.0996094,49.4995117,48.2788086
636,3180000,3480000,636,-6681,5421,464,-471,861,790,-0.815551758,0.661743164,0.056640625,-28.7475586,52.5512695,48.2177734
637,3185008,3485008,637,-6727,5458,407,-514,918,788,-0.821166992,0.666259766,0.0496826172,-31.3720703,56.0302734,48.0957031
638,3190000,3490000,638,-6636,5459,287,-563,981,774,-0.810058594,0.666381836,0.0350341797,-34.362793,59.8754883,47.2412109
639,3195008,3495008,639,-6451,5475,120,-631,1039,763,-0.787475586,0.668334961,0.0146484375,-38.5131836,63.4155273,46.5698242
640,3200000,3500000,640,-6361,5492,-91,-708,1093,761,-0.776489258,0.670410156,-0.0111083984,-43.2128906,66.7114258,46.4477539
641,3205008,3505008,641,-6295,5437,-335,-782,1130,761,-0.768432617,0.663696289,-0.0408935547,-47.7294922,68.9697266,46.4477539
642,3210000,3510000,642,-6183,5312,-551,-838,1140,765,-0.754760742,0.6484375,-0.0672607422,-51.1474609,69.5800781,46.6918945
643,3215008,3515008,643,-6161,5157,-713,-858,1130,777,-0.752075195,0.629516602,-0.0870361328,-52.3681641,68.9697266,47.4243164
644,3220000,3520000,644,-6321,5018,-772,-842,1113,795,-0.771606445,0.612548828,-0.0942382812,-51.3916016,67.9321289,48.5229492
645,3225008,3525008,645,-6414,4870,-757,-797,1078,817,-0.782958984,0.594482422,-0.0924072266,-48.6450195,65.7958984,49.8657227
646,3230000,3530000,646,-6473,4704,-705,-721,1014,846,-0.790161133,0.57421875,-0.0860595703,-44.0063477,61.8896484,51.6357422
647,3235008,3535008,647,-6558,4548,-588,-608,936,870,-0.800537109,0.555175781,-0.0717773438,-37.109375,57.1289062,53.1005859
648,3240000,3540000,648,-6668,4405,-461,-474,857,883,-0.813964844,0.537719727,-0.0562744141,-28.9306641,52.3071289,53.894043
649,3245008,3545008,649,-6780,4329,-364,-328,778,894,-0.827636719,0.528442383,-0.0444335938,-20.0195312,47.4853516,54.5654297
650,3250000,3550000,650,-6791,4378,-231,-190,700,905,-0.828979492,0.534423828,-0.0281982422,-11.5966797,42.7246094,55.2368164
651,3255008,3555008,651,-6717,4524,-47,-90,639,910,-0.819946289,0.552246094,-0.00573730469,-5.49316406,39.0014648,55.5419922
652,3260000,3560000,652,-6633,4661,61,-44,616,908,-0.809692383,0.568969727,0.00744628906,-2.68554688,37.5976562,55.4199219
653,3265008,3565008,653,-6602,4738,65,-28,640,898,-0.805908203,0.578369141,0.00793457031,-1.70898438,39.0625,54.8095703
654,3270000,3570000,654,-6543,4841,18,-39,671,882,-0.798706055,0.590942383,0.00219726562,-2.38037109,40.9545898,53.8330078
655,3275008,3575008,655,-6410,5014,-102,-81,692,860,-0.782470703,0.612060547,-0.0124511719,-4.94384766,42.2363281,52.4902344
656,3280000,3580000,656,-6305,5225,-226,-137,733,834,-0.76965332,0.637817383,-0.0275878906,-8.36181641,44.7387695,50.9033203
657,3285008,3585008,657,-6254,5414,-303,-214,798,809,-0.763427734,0.660888672,-0.0369873047,-13.0615234,48.7060547,49.3774414
658,3290000,3590000,658,-6246,5572,-423,-311,857,789,-0.762451172,0.680175781,-0.0516357422,-18.9819336,52.3071289,48.1567383
659,3295008,3595008,659,-6272,5675,-580,-396,897,773,-0.765625,0.692749023,-0.0708007812,-24.1699219,54.7485352,47.1801758
660,3300000,3600000,660,-6365,5738,-670,-460,927,765,-0.776977539,0.700439453,-0.0817871094,-28.0761719,56.5795898,46.6918945
661,3305008,3605008,661,-6576,5740,-719,-498,945,758,-0.802734375,0.700683594,-0.0877685547,-30.3955078,57.6782227,46.2646484
662,3310000,3610000,662,-6726,5661,-738,-498,937,740,-0.821044922,0.691040039,-0.0900878906,-30.3955078,57.1899414,45.1660156
663,3315008,3615008,663,-6771,5531,-711,-459,897,721,-0.826538086,0.675170898,-0.0867919922,-28.0151367,54.7485352,44.0063477
664,3320000,3620000,664,-6731,5320,-715,-376,838,709,-0.821655273,0.649414062,-0.0872802734,-22.9492188,51.1474609,43.2739258
665,3325008,3625008,665,-6614,5073,-727,-247,768,700,-0.807373047,0.619262695,-0.0887451172,-15.0756836,46.875,42.7246094
666,3330000,3630000,666,-6512,4900,-701,-91,684,700,-0.794921875,0.598144531,-0.0855712891,-5.55419922,41.7480469,42.7246094
667,3335008,3635008,667,-6443,4864,-623,73,592,708,-0.786499023,0.59375,-0.0760498047,4.45556641,36.1328125,43.2128906
668,3340000,3640000,668,-6425,4897,-507,220,513,713,-0.784301758,0.59777832,-0.0618896484,13.4277344,31.3110352,43.5180664
669,3345008,3645008,669,-6432,4908,-376,335,457,704,-0.78515625,0.599121094,-0.0458984375,20.4467773,27.8930664,42.96875
670,3350000,3650000,670,-6413,4951,-216,404,423,696,-0.782836914,0.604370117,-0.0263671875,24.6582031,25.8178711,42.4804688
671,3355008,3655008,671,-6365,5065,-100,409,417,696,-0.776977539,0.618286133,-0.0122070312,24.9633789,25.4516602,42.4804688
672,3360000,3660000,672,-6366,5234,-75,364,432,702,-0.777099609,0.638916016,-0.00915527344,22.2167969,26.3671875,42.8466797
673,3365008,3665008,673,-6414,5465,-122,293,468,709,-0.782958984,0.667114258,-0.0148925781,17.8833008,28.5644531,43.2739258
674,3370000,3670000,674,-6416,5686,-227,219,525,704,-0.783203125,0.694091797,-0.0277099609,13.3666992,32.043457,42.96875
675,3375008,3675008,675,-6313,5912,-336,140,580,704,-0.770629883,0.721679688,-0.041015625,8.54492188,35.4003906,42.96875
676,3380000,3680000,676,-6191,6180,-448,51,613,714,-0.755737305,0.754394531,-0.0546875,3.11279297,37.4145508,43.5791016
677,3385008,3685008,677,-6068,6464,-555,-37,635,729,-0.740722656,0.7890625,-0.0677490234,-2.25830078,38.7573242,44.4946289
678,3390000,3690000,678,-5885,6746,-605,-126,645,748,-0.718383789,0.823486328,-0.0738525391,-7.69042969,39.3676758,45.6542969
679,3395008,3695008,679,-5700,6964,-560,-223,647,766,-0.695800781,0.850097656,-0.068359375,-13.6108398,39.4897461,46.7529297
680,3400000,3700000,680,-5550,7053,-448,-327,667,776,-0.677490234,0.860961914,-0.0546875,-19.9584961,40.7104492,47.3632812
681,3405008,3705008,681,-5430,6994,-367,-420,699,778,-0.662841797,0.853759766,-0.0447998047,-25.6347656,42.6635742,47.4853516
682,3410000,3710000,682,-5376,6796,-336,-468,712,780,-0.65625,0.829589844,-0.041015625,-28.5644531,43.4570312,47.6074219
683,3415008,3715008,683,-5470,6483,-333,-453,692,777,-0.667724609,0.791381836,-0.0406494141,-27.6489258,42.2363281,47.4243164
684,3420000,3720000,684,-5697,6103,-318,-368,651,759,-0.69543457,0.744995117,-0.0388183594,-22.4609375,39.7338867,46.3256836
685,3425008,3725008,685,-5958,5718,-271,-231,601,720,-0.727294922,0.697998047,-0.0330810547,-14.0991211,36.6821289,43.9453125
686,3430000,3730000,686,-6191,5416,-196,-70,552,674,-0.755737305,0.661132812,-0.0239257812,-4.27246094,33.6914062,41.1376953
687,3435008,3735008,687,-6392,5196,-78,78,518,623,-0.780273438,0.634277344,-0.00952148438,4.76074219,31.6162109,38.0249023
688,3440000,3740000,688,-6519,4968,-39,183,501,569,-0.795776367,0.606445312,-0.00476074219,11.1694336,30.5786133,34.7290039
689,3445008,3745008,689,-6578,4812,-125,246,489,524,-0.802978516,0.587402344,-0.0152587891,15.0146484,29.8461914,31.9824219
690,3450000,3750000,690,-6575,4804,-262,267,482,482,-0.802612305,0.586425781,-0.0319824219,16.2963867,29.4189453,29.4189453
691,3455008,3755008,691,-6499,4921,-459,242,492,446,-0.793334961,0.600708008,-0.0560302734,14.7705078,30.0292969,27.2216797
692,3460000,3760000,692,-6326,5130,-719,192,517,414,-0.772216797,0.626220703,-0.0877685547,11.71875,31.5551758,25.2685547
693,3465008,3765008,693,-6068,5343,-946,122,543,397,-0.740722656,0.65222168,-0.115478516,7.44628906,33.1420898,24.230957
694,3470000,3770000,694,-5804,5574,-1121,42,559,405,-0.708496094,0.680419922,-0.13684082,2.56347656,34.1186523,24.7192383
695,3475008,3775008,695,-5626,5867,-1220,-30,568,433,-0.686767578,0.716186523,-0.148925781,-1.83105469,34.6679688,26.4282227
696,3480000,3780000,696,-5564,6141,-1169,-93,556,466,-0.679199219,0.749633789,-0.142700195,-5.67626953,33.9355469,28.4423828
697,3485008,3785008,697,-5546,6341,-974,-151,523,494,-0.677001953,0.774047852,-0.118896484,-9.21630859,31.9213867,30.1513672
698,3490000,3790000,698,-5590,6447,-731,-201,494,519,-0.682373047,0.786987305,-0.0892333984,-12.2680664,30.1513672,31.6772461
699,3495008,3795008,699,-5645,6422,-556,-221,488,531,-0.689086914,0.783935547,-0.0678710938,-13.4887695,29.7851562,32.409668
700,3500000,3800000,700,-5688,6315,-444,-196,493,530,-0.694335938,0.770874023,-0.0541992188,-11.9628906,30.090332,32.3486328
701,3505008,3805008,701,-5800,6165,-385,-141,495,523,-0.708007812,0.752563477,-0.0469970703,-8.60595703,30.2124023,31.9213867
702,3510000,3810000,702,-5979,6032,-378,-68,486,507,-0.729858398,0.736328125,-0.0461425781,-4.15039062,29.6630859,30.9448242
703,3515008,3815008,703,-6158,5914,-348,8,457,477,-0.751708984,0.721923828,-0.0424804688,0.48828125,27.8930664,29.1137695
704,3520000,3820000,704,-6276,5711,-329,74,412,436,-0.766113281,0.697143555,-0.0401611328,4.51660156,25.1464844,26.6113281
705,3525008,3825008,705,-6330,5474,-369,132,373,391,-0.772705078,0.668212891,-0.0450439453,8.05664062,22.7661133,23.8647461
706,3530000,3830000,706,-6338,5292,-448,183,346,341,-0.773681641,0.645996094,-0.0546875,11.1694336,21.1181641,20.8129883
707,3535008,3835008,707,-6277,5151,-548,222,324,290,-0.766235352,0.62878418,-0.0668945312,13.5498047,19.7753906,17.7001953
708,3540000,3840000,708,-6201,5091,-668,244,314,247,-0.756958008,0.621459961,-0.0815429688,14.8925781,19.1650391,15.0756836
709,3545008,3845008,709,-6150,5150,-810,243,323,211,-0.750732422,0.628662109,-0.0988769531,14.831543,19.7143555,12.878418
710,3550000,3850000,710,-6071,5289,-964,219,340,180,-0.741088867,0.645629883,-0.117675781,13.3666992,20.7519531,10.9863281
711,3555008,3855008,711,-5961,5467,-1130,181,335,161,-0.727661133,0.667358398,-0.137939453,11.0473633,20.4467773,9.82666016
712,3560000,3860000,712,-5842,5671,-1243,134,300,152,-0.713134766,0.692260742,-0.151733398,8.17871094,18.3105469,9.27734375
713,3565008,3865008,713,-5727,5870,-1274,84,254,150,-0.69909668,0.716552734,-0.155517578,5.12695312,15.5029297,9.15527344
714,3570000,3870000,714,-5600,6044,-1210,38,218,151,-0.68359375,0.737792969,-0.147705078,2.31933594,13.3056641,9.21630859
715,3575008,3875008,715,-5488,6205,-1049,-9,196,154,-0.669921875,0.757446289,-0.128051758,-0.549316406,11.9628906,9.39941406
716,3580000,3880000,716,-5418,6333,-893,-55,187,157,-0.661376953,0.773071289,-0.109008789,-3.35693359,11.4135742,9.58251953
717,3585008,3885008,717,-5375,6420,-793,-84,194,163,-0.65612793,0.783691406,-0.0968017578,-5.12695312,11.8408203,9.94873047
718,3590000,3890000,718,-5328,6479,-745,-88,207,173,-0.650390625,0.790893555,-0.0909423828,-5.37109375,12.6342773,10.559082
719,3595008,3895008,719,-5276,6529,-707,-82,224,181,-0.644042969,0.79699707,-0.0863037109,-5.00488281,13.671875,11.0473633
720,3600000,3900000,720,-5185,6540,-674,-83,246,179,-0.63293457,0.798339844,-0.0822753906,-5.06591797,15.0146484,10.925293
721,3605008,3905008,721,-5075,6505,-689,-96,268,174,-0.619506836,0.794067383,-0.0841064453,-5.859375,16.3574219,10.6201172
722,3610000,3910000,722,-5041,6445,-733,-117,292,164,-0.615356445,0.786743164,-0.0894775391,-7.14111328,17.8222656,10.0097656
723,3615008,3915008,723,-5024,6301,-822,-136,318,143,-0.61328125,0.769165039,-0.100341797,-8.30078125,19.4091797,8.72802734
724,3620000,3920000,724,-5016,6129,-945,-142,330,128,-0.612304688,0.748168945,-0.115356445,-8.66699219,20.1416016,7.8125
725,3625008,3925008,725,-5101,6011,-1052,-134,335,116,-0.622680664,0.733764648,-0.128417969,-8.17871094,20.4467773,7.08007812
726,3630000,3930000,726,-5173,5916,-1141,-118,339,95,-0.631469727,0.722167969,-0.139282227,-7.20214844,20.690918,5.79833984
727,3635008,3935008,727,-5221,5809,-1212,-101,329,78,-0.637329102,0.709106445,-0.147949219,-6.16455078,20.0805664,4.76074219
728,3640000,3940000,728,-5321,5736,-1230,-85,312,72,-0.649536133,0.700195312,-0.150146484,-5.18798828,19.0429688,4.39453125
729,3645008,3945008,729,-5386,5707,-1237,-71,290,73,-0.657470703,0.696655273,-0.151000977,-4.33349609,17.7001953,4.45556641
730,3650000,3950000,730,-5391,5681,-1247,-48,250,74,-0.658081055,0.693481445,-0.15222168,-2.9296875,15.2587891,4.51660156
731,3655008,3955008,731,-5345,5678,-1206,-13,206,74,-0.65246582,0.693115234,-0.147216797,-0.793457031,12.5732422,4.51660156
732,3660000,3960000,732,-5218,5685,-1145,15,172,68,-0.636962891,0.693969727,-0.139770508,0.915527344,10.4980469,4.15039062
733,3665008,3965008,733,-5136,5697,-1096,33,146,62,-0.626953125,0.69543457,-0.133789062,2.01416016,8.91113281,3.78417969
734,3670000,3970000,734,-5127,5745,-1045,45,134,56,-0.625854492,0.701293945,-0.127563477,2.74658203,8.17871094,3.41796875
735,3675008,3975008,735,-5112,5810,-978,41,126,44,-0.624023438,0.709228516,-0.119384766,2.50244141,7.69042969,2.68554688
736,3680000,3980000,736,-5121,5863,-912,23,115,26,-0.62512207,0.715698242,-0.111328125,1.40380859,7.01904297,1.58691406
737,3685008,3985008,737,-5158,5867,-878,2,105,9,-0.629638672,0.716186523,-0.107177734,0.122070312,6.40869141,0.549316406
738,3690000,3990000,738,-5207,5828,-852,-14,94,-9,-0.635620117,0.711425781,-0.104003906,-0.854492188,5.73730469,-0.549316406
739,3695008,3995008,739,-5257,5782,-830,-23,77,-31,-0.641723633,0.705810547,-0.101318359,-1.40380859,4.69970703,-1.89208984
740,3700000,4000000,740,-5329,5714,-838,-25,57,-50,-0.650512695,0.697509766,-0.102294922,-1.52587891,3.47900391,-3.05175781
741,3705008,4005008,741,-5415,5642,-845,-16,40,-70,-0.661010742,0.688720703,-0.103149414,-0.9765625,2.44140625,-4.27246094
742,3710000,4010000,742,-5473,5585,-835,-6,19,-90,-0.66809082,0.681762695,-0.101928711,-0.366210938,1.15966797,-5.49316406
743,3715008,4015008,743,-5507,5553,-842,-1,-8,-107,-0.672241211,0.677856445,-0.102783203,-0.0610351562,-0.48828125,-6.53076172
744,3720000,4020000,744,-5529,5544,-859,4,-36,-119,-0.674926758,0.676757812,-0.104858398,0.244140625,-2.19726562,-7.26318359
745,3725008,4025008,745,-5516,5560,-861,12,-61,-123,-0.673339844,0.678710938,-0.105102539,0.732421875,-3.72314453,-7.50732422
746,3730000,4030000,746,-5490,5614,-854,20,-89,-121,-0.670166016,0.685302734,-0.104248047,1.22070312,-5.43212891,-7.38525391
747,3735008,4035008,747,-5454,5683,-850,26,-118,-120,-0.665771484,0.693725586,-0.103759766,1.58691406,-7.20214844,-7.32421875
748,3740000,4040000,748,-5413,5750,-840,31,-140,-117,-0.660766602,0.701904297,-0.102539062,1.89208984,-8.54492188,-7.14111328
749,3745008,4045008,749,-5391,5814,-826,36,-155,-114,-0.658081055,0.709716797,-0.100830078,2.19726562,-9.46044922,-6.95800781
750,3750000,4050000,750,-5389,5871,-814,40,-165,-111,-0.657836914,0.716674805,-0.0993652344,2.44140625,-10.0708008,-6.77490234
751,3755008,4055008,751,-5403,5941,-808,40,-174,-108,-0.659545898,0.725219727,-0.0986328125,2.44140625,-10.6201172,-6.59179688
752,3760000,4060000,752,-5418,6019,-825,38,-181,-108,-0.661376953,0.734741211,-0.100708008,2.31933594,-11.0473633,-6.59179688
753,3765008,4065008,753,-5447,6091,-843,36,-189,-108,-0.664916992,0.743530273,-0.102905273,2.19726562,-11.5356445,-6.59179688
754,3770000,4070000,754,-5481,6160,-856,35,-199,-110,-0.669067383,0.751953125,-0.104492188,2.13623047,-12.1459961,-6.71386719
755,3775008,4075008,755,-5506,6209,-863,34,-212,-115,-0.672119141,0.75793457,-0.10534668,2.07519531,-12.9394531,-7.01904297
756,3780000,4080000,756,-5522,6225,-850,34,-225,-123,-0.674072266,0.759887695,-0.103759766,2.07519531,-13.7329102,-7.50732422
757,3785008,4085008,757,-5543,6219,-832,38,-241,-132,-0.676635742,0.759155273,-0.1015625,2.31933594,-14.7094727,-8.05664062
758,3790000,4090000,758,-5563,6190,-796,47,-257,-143,-0.679077148,0.755615234,-0.0971679688,2.86865234,-15.6860352,-8.72802734
759,3795008,4095008,759,-5576,6138,-758,58,-270,-157,-0.680664062,0.749267578,-0.0925292969,3.54003906,-16.4794922,-9.58251953
760,3800000,4100000,760,-5605,6089,-723,71,-284,-172,-0.684204102,0.743286133,-0.0882568359,4.33349609,-17.3339844,-10.4980469
761,3805008,4105008,761,-5649,6040,-666,83,-299,-188,-0.689575195,0.737304688,-0.0812988281,5.06591797,-18.2495117,-11.4746094
762,3810000,4110000,762,-5692,5985,-617,88,-318,-208,-0.694824219,0.73059082,-0.0753173828,5.37109375,-19.4091797,-12.6953125
763,3815008,4115008,763,-5732,5910,-611,93,-340,-230,-0.699707031,0.721435547,-0.0745849609,5.67626953,-20.7519531,-14.0380859
764,3820000,4120000,764,-5767,5829,-616,102,-364,-250,-0.703979492,0.711547852,-0.0751953125,6.22558594,-22.2167969,-15.2587891
765,3825008,4125008,765,-5796,5741,-609,110,-390,-273,-0.707519531,0.700805664,-0.0743408203,6.71386719,-23.8037109,-16.6625977
766,3830000,4130000,766,-5828,5642,-621,120,-417,-300,-0.711425781,0.688720703,-0.0758056641,7.32421875,-25.4516602,-18.3105469
767,3835008,4135008,767,-5864,5552,-614,130,-442,-328,-0.715820312,0.677734375,-0.0749511719,7.93457031,-26.9775391,-20.0195312
768,3840000,4140000,768,-5909,5475,-598,136,-465,-354,-0.721313477,0.668334961,-0.0729980469,8.30078125,-28.3813477,-21.6064453
769,3845008,4145008,769,-5969,5402,-605,144,-490,-380,-0.728637695,0.659423828,-0.0738525391,8.7890625,-29.9072266,-23.1933594
770,3850000,4150000,770,-6025,5340,-605,153,-518,-408,-0.735473633,0.651855469,-0.0738525391,9.33837891,-31.6162109,-24.9023438
771,3855008,4155008,771,-6065,5288,-611,160,-549,-436,-0.740356445,0.645507812,-0.0745849609,9.765625,-33.5083008,-26.6113281
772,3860000,4160000,772,-6114,5254,-626,165,-580,-463,-0.746337891,0.641357422,-0.0764160156,10.0708008,-35.4003906,-28.2592773
773,3865008,4165008,773,-6156,5249,-600,166,-616,-491,-0.751464844,0.64074707,-0.0732421875,10.1318359,-37.5976562,-29.9682617
774,3870000,4170000,774,-6186,5253,-549,152,-659,-518,-0.755126953,0.641235352,-0.0670166016,9.27734375,-40.222168,-31.6162109
775,3875008,4175008,775,-6223,5260,-508,131,-701,-541,-0.759643555,0.642089844,-0.0620117188,7.99560547,-42.7856445,-33.0200195
776,3880000,4180000,776,-6231,5273,-454,106,-738,-565,-0.760620117,0.643676758,-0.0554199219,6.46972656,-45.0439453,-34.4848633
777,3885008,4185008,777,-6228,5284,-381,79,-771,-586,-0.760253906,0.645019531,-0.0465087891,4.82177734,-47.0581055,-35.7666016
778,3890000,4190000,778,-6217,5270,-318,56,-794,-610,-0.758911133,0.643310547,-0.0388183594,3.41796875,-48.4619141,-37.2314453
779,3895008,4195008,779,-6197,5254,-267,39,-807,-638,-0.756469727,0.641357422,-0.0325927734,2.38037109,-49.2553711,-38.9404297
780,3900000,4200000,780,-6200,5243,-209,28,-813,-659,-0.756835938,0.640014648,-0.0255126953,1.70898438,-49.621582,-40.222168
781,3905008,4205008,781,-6238,5255,-138,12,-814,-679,-0.761474609,0.641479492,-0.0168457031,0.732421875,-49.6826172,-41.4428711
782,3910000,4210000,782,-6295,5297,-79,-14,-810,-699,-0.768432617,0.646606445,-0.00964355469,-0.854492188,-49.4384766,-42.6635742
783,3915008,4215008,783,-6335,5346,-76,-42,-800,-715,-0.77331543,0.652587891,-0.00927734375,-2.56347656,-48.828125,-43.6401367
784,3920000,4220000,784,-6382,5397,-128,-62,-795,-722,-0.779052734,0.658813477,-0.015625,-3.78417969,-48.5229492,-44.0673828
785,3925008,4225008,785,-6400,5466,-192,-66,-798,-720,-0.78125,0.667236328,-0.0234375,-4.02832031,-48.7060547,-43.9453125
786,3930000,4230000,786,-6346,5572,-217,-69,-818,-713,-0.774658203,0.680175781,-0.0264892578,-4.21142578,-49.9267578,-43.5180664
787,3935008,4235008,787,-6264,5688,-214,-77,-851,-703,-0.764648438,0.694335938,-0.0261230469,-4.69970703,-51.940918,-42.9077148
788,3940000,4240000,788,-6145,5804,-214,-80,-873,-692,-0.75012207,0.708496094,-0.0261230469,-4.8828125,-53.2836914,-42.2363281
789,3945008,4245008,789,-5988,5931,-240,-73,-880,-682,-0.730957031,0.723999023,-0.029296875,-4.45556641,-53.7109375,-41.6259766
790,3950000,4250000,790,-5799,6059,-305,-49,-864,-677,-0.707885742,0.739624023,-0.0372314453,-2.99072266,-52.734375,-41.3208008
791,3955008,4255008,791,-5620,6176,-400,-13,-830,-678,-0.686035156,0.75390625,-0.048828125,-0.793457031,-50.6591797,-41.3818359
792,3960000,4260000,792,-5505,6226,-483,19,-785,-689,-0.67199707,0.760009766,-0.0589599609,1.15966797,-47.9125977,-42.0532227
793,3965008,4265008,793,-5459,6183,-523,25,-723,-707,-0.666381836,0.754760742,-0.0638427734,1.52587891,-44.128418,-43.1518555
794,3970000,4270000,794,-5516,6111,-553,-4,-649,-726,-0.673339844,0.74597168,-0.0675048828,-0.244140625,-39.6118164,-44.3115234
795,3975008,4275008,795,-5666,6038,-577,-65,-582,-750,-0.691650391,0.737060547,-0.0704345703,-3.96728516,-35.5224609,-45.7763672
796,3980000,4280000,796,-5882,5986,-612,-147,-548,-775,-0.718017578,0.730712891,-0.0747070312,-8.97216797,-33.4472656,-47.3022461
797,3985008,4285008,797,-6104,5969,-667,-229,-558,-804,-0.745117188,0.728637695,-0.0814208984,-13.9770508,-34.0576172,-49.0722656
798,3990000,4290000,798,-6292,5931,-733,-290,-600,-836,-0.768066406,0.723999023,-0.0894775391,-17.7001953,-36.6210938,-51.0253906
799,3995008,4295008,799,-6453,5870,-857,-304,-657,-867,-0.787719727,0.716552734,-0.104614258,-18.5546875,-40.1000977,-52.9174805
800,4000000,4300000,800,-6554,5820,-933,-267,-729,-895,-0.800048828,0.710449219,-0.113891602,-16.2963867,-44.4946289,-54.6264648
801,4005008,4305008,801,-6599,5745,-866,-202,-817,-914,-0.805541992,0.701293945,-0.105712891,-12.3291016,-49.8657227,-55.7861328
802,4010000,4310000,802,-6615,5662,-771,-115,-893,-924,-0.807495117,0.691162109,-0.0941162109,-7.01904297,-54.5043945,-56.3964844
803,4015008,4315008,803,-6600,5599,-690,-1,-942,-925,-0.805664062,0.68347168,-0.0842285156,-0.0610351562,-57.4951172,-56.4575195
804,4020000,4320000,804,-6556,5551,-570,129,-972,-920,-0.800292969,0.677612305,-0.0695800781,7.87353516,-59.3261719,-56.1523438
805,4025008,4325008,805,-6459,5481,-418,249,-973,-904,-0.788452148,0.669067383,-0.0510253906,15.1977539,-59.387207,-55.1757812
806,4030000,4330000,806,-6342,5421,-280,337,-948,-875,-0.774169922,0.661743164,-0.0341796875,20.5688477,-57.8613281,-53.4057617
807,4035008,4335008,807,-6232,5431,-197,379,-914,-841,-0.760742188,0.662963867,-0.0240478516,23.1323242,-55.7861328,-51.3305664
808,4040000,4340000,808,-6091,5445,-213,377,-876,-805,-0.743530273,0.664672852,-0.0260009766,23.0102539,-53.4667969,-49.1333008
809,4045008,4345008,809,-5947,5420,-342,350,-830,-763,-0.725952148,0.661621094,-0.0417480469,21.3623047,-50.6591797,-46.5698242
810,4050000,4350000,810,-5825,5392,-475,311,-779,-715,-0.71105957,0.658203125,-0.0579833984,18.9819336,-47.5463867,-43.6401367
811,4055008,4355008,811,-5741,5368,-633,275,-732,-672,-0.700805664,0.655273438,-0.0772705078,16.784668,-44.6777344,-41.015625
812,4060000,4360000,812,-5719,5336,-857,264,-697,-637,-0.698120117,0.651367188,-0.104614258,16.1132812,-42.5415039,-38.8793945
813,4065008,4365008,813,-5749,5297,-1061,275,-679,-608,-0.701782227,0.646606445,-0.129516602,16.784668,-41.4428711,-37.109375
814,4070000,4370000,814,-5791,5247,-1204,296,-684,-581,-0.70690918,0.64050293,-0.146972656,18.0664062,-41.7480469,-35.4614258
815,4075008,4375008,815,-5897,5230,-1271,325,-709,-550,-0.719848633,0.638427734,-0.155151367,19.8364258,-43.2739258,-33.5693359
816,4080000,4380000,816,-6020,5253,-1284,358,-754,-522,-0.734863281,0.641235352,-0.156738281,21.8505859,-46.0205078,-31.8603516
817,4085008,4385008,817,-6124,5284,-1200,403,-818,-496,-0.747558594,0.645019531,-0.146484375,24.597168,-49.9267578,-30.2734375
818,4090000,4390000,818,-6238,5333,-1050,465,-883,-466,-0.761474609,0.651000977,-0.128173828,28.3813477,-53.894043,-28.4423828
819,4095008,4395008,819,-6326,5430,-882,531,-953,-438,-0.772216797,0.662841797,-0.107666016,32.409668,-58.1665039,-26.7333984
820,4100000,4400000,820,-6388,5613,-659,584,-1016,-415,-0.779785156,0.685180664,-0.0804443359,35.6445312,-62.0117188,-25.3295898
821,4105008,4405008,821,-6413,5783,-446,617,-1056,-398,-0.782836914,0.705932617,-0.0544433594,37.6586914,-64.453125,-24.2919922
822,4110000,4410000,822,-6482,5813,-303,632,-1090,-386,-0.791259766,0.709594727,-0.0369873047,38.5742188,-66.5283203,-23.5595703
823,4115008,4415008,823,-6690,5763,-237,646,-1134,-379,-0.816650391,0.703491211,-0.0289306641,39.4287109,-69.2138672,-23.1323242
824,4120000,4420000,824,-6963,5720,-206,676,-1173,-364,-0.849975586,0.698242188,-0.0251464844,41.2597656,-71.5942383,-22.2167969
825,4125008,4425008,825,-7115,5760,-141,703,-1208,-357,-0.868530273,0.703125,-0.0172119141,42.9077148,-73.7304688,-21.7895508
826,4130000,4430000,826,-7171,5857,-78,719,-1252,-356,-0.875366211,0.71496582,-0.00952148438,43.8842773,-76.4160156,-21.7285156
827,4135008,4435008,827,-7156,5896,-85,742,-1304,-352,-0.873535156,0.719726562,-0.0103759766,45.2880859,-79.5898438,-21.484375
828,4140000,4440000,828,-6971,5911,-75,782,-1342,-352,-0.850952148,0.721557617,-0.00915527344,47.7294922,-81.9091797,-21.484375
829,4145008,4445008,829,-6687,5887,70,803,-1349,-346,-0.81628418,0.71862793,0.00854492188,49.0112305,-82.3364258,-21.1181641
830,4150000,4450000,830,-6408,5790,249,785,-1313,-331,-0.782226562,0.706787109,0.0303955078,47.9125977,-80.1391602,-20.2026367
831,4155008,4455008,831,-6235,5693,316,749,-1256,-307,-0.761108398,0.694946289,0.0385742188,45.715332,-76.6601562,-18.737793
832,4160000,4460000,832,-6054,5668,298,708,-1204,-268,-0.739013672,0.691894531,0.0363769531,43.2128906,-73.4863281,-16.3574219
833,4165008,4465008,833,-5797,5734,292,661,-1144,-218,-0.707641602,0.699951172,0.0356445312,40.3442383,-69.8242188,-13.3056641
834,4170000,4470000,834,-5699,5725,280,605,-1062,-177,-0.695678711,0.698852539,0.0341796875,36.9262695,-64.8193359,-10.8032227
835,4175008,4475008,835,-5694,5567,123,565,-988,-150,-0.695068359,0.67956543,0.0150146484,34.4848633,-60.3027344,-9.15527344
836,4180000,4480000,836,-5669,5428,-41,554,-946,-112,-0.692016602,0.662597656,-0.00500488281,33.8134766,-57.7392578,-6.8359375
837,4185008,4485008,837,-5720,5336,-148,549,-899,-61,-0.698242188,0.651367188,-0.0180664062,33.5083008,-54.8706055,-3.72314453
838,4190000,4490000,838,-5764,5285,-252,549,-845,-24,-0.703613281,0.645141602,-0.0307617188,33.5083008,-51.574707,-1.46484375
839,4195008,4495008,839,-5794,5259,-342,543,-804,6,-0.707275391,0.641967773,-0.0417480469,33.1420898,-49.0722656,0.366210938
840,4200000,4500000,840,-5864,5245,-413,532,-772,38,-0.715820312,0.640258789,-0.0504150391,32.4707031,-47.1191406,2.31933594
841,4205008,4505008,841,-5927,5269,-445,522,-743,66,-0.723510742,0.643188477,-0.0543212891,31.8603516,-45.3491211,4.02832031
842,4210000,4510000,842,-6025,5291,-475,520,-722,97,-0.735473633,0.645874023,-0.0579833984,31.7382812,-44.0673828,5.92041016
843,4215008,4515008,843,-6150,5323,-407,517,-703,120,-0.750732422,0.649780273,-0.0496826172,31.5551758,-42.9077148,7.32421875
844,4220000,4520000,844,-6256,5345,-311,500,-708,134,-0.763671875,0.65246582,-0.0379638672,30.5175781,-43.2128906,8.17871094
845,4225008,4525008,845,-6329,5301,-313,500,-758,151,-0.772583008,0.647094727,-0.0382080078,30.5175781,-46.2646484,9.21630859
846,4230000,4530000,846,-6380,5242,-272,536,-822,167,-0.778808594,0.639892578,-0.033203125,32.7148438,-50.1708984,10.1928711
847,4235008,4535008,847,-6384,5238,-148,579,-871,174,-0.779296875,0.639404297,-0.0180664062,35.3393555,-53.1616211,10.6201172
848,4240000,4540000,848,-6277,5269,-46,619,-899,172,-0.766235352,0.643188477,-0.00561523438,37.7807617,-54.8706055,10.4980469
849,4245008,4545008,849,-6278,5365,53,672,-878,176,-0.766357422,0.654907227,0.00646972656,41.015625,-53.5888672,10.7421875
850,4250000,4550000,850,-6287,5469,189,709,-852,175,-0.767456055,0.667602539,0.0230712891,43.2739258,-52.0019531,10.6811523
851,4255008,4555008,851,-6169,5471,268,700,-863,171,-0.753051758,0.66784668,0.0327148438,42.7246094,-52.6733398,10.4370117
852,4260000,4560000,852,-6126,5468,288,671,-863,171,-0.747802734,0.667480469,0.03515625,40.9545898,-52.6733398,10.4370117
853,4265008,4565008,853,-6093,5441,268,651,-835,169,-0.743774414,0.66418457,0.0327148438,39.7338867,-50.9643555,10.3149414
854,4270000,4570000,854,-6127,5368,207,640,-804,170,-0.747924805,0.655273438,0.0252685547,39.0625,-49.0722656,10.3759766
855,4275008,4575008,855,-6244,5381,214,631,-790,173,-0.762207031,0.656860352,0.0261230469,38.5131836,-48.2177734,10.559082
856,4280000,4580000,856,-6306,5408,279,613,-794,174,-0.769775391,0.66015625,0.0340576172,37.4145508,-48.4619141,10.6201172
857,4285008,4585008,857,-6339,5405,316,585,-810,173,-0.773803711,0.659790039,0.0385742188,35.7055664,-49.4384766,10.559082
858,4290000,4590000,858,-6363,5387,347,558,-829,173,-0.776733398,0.657592773,0.0423583984,34.0576172,-50.5981445,10.559082
859,4295008,4595008,859,-6349,5261,386,546,-839,170,-0.775024414,0.642211914,0.0471191406,33.3251953,-51.2084961,10.3759766
860,4300000,4600000,860,-6340,5106,440,550,-844,172,-0.773925781,0.623291016,0.0537109375,33.5693359,-51.5136719,10.4980469
861,4305008,4605008,861,-6343,5035,546,559,-847,175,-0.774291992,0.614624023,0.0666503906,34.1186523,-51.6967773,10.6811523
862,4310000,4610000,862,-6187,5059,679,551,-842,161,-0.755249023,0.617553711,0.0828857422,33.6303711,-51.3916016,9.82666016
863,4315008,4615008,863,-5975,5088,727,542,-809,163,-0.729370117,0.62109375,0.0887451172,33.0810547,-49.3774414,9.94873047
864,4320000,4620000,864,-6034,5106,798,545,-767,193,-0.736572266,0.623291016,0.0974121094,33.2641602,-46.8139648,11.7797852
865,4325008,4625008,865,-6115,5129,886,532,-735,211,-0.746459961,0.626098633,0.108154297,32.4707031,-44.8608398,12.878418
866,4330000,4630000,866,-6054,5165,858,504,-687,217,-0.739013672,0.630493164,0.104736328,30.7617188,-41.9311523,13.2446289
867,4335008,4635008,867,-5999,5225,802,470,-633,221,-0.732299805,0.637817383,0.0979003906,28.6865234,-38.6352539,13.4887695
868,4340000,4640000,868,-5928,5267,708,430,-591,226,-0.723632812,0.642944336,0.0864257812,26.2451172,-36.0717773,13.7939453
869,4345008,4645008,869,-5850,5290,595,397,-557,231,-0.714111328,0.645751953,0.0726318359,24.230957,-33.996582,14.0991211
870,4350000,4650000,870,-5786,5315,544,362,-523,229,-0.706298828,0.648803711,0.06640625,22.0947266,-31.9213867,13.9770508
871,4355008,4655008,871,-5842,5365,548,318,-484,238,-0.713134766,0.654907227,0.0668945312,19.4091797,-29.5410156,14.5263672
872,4360000,4660000,872,-6088,5403,567,282,-438,240,-0.743164062,0.659545898,0.0692138672,17.2119141,-26.7333984,14.6484375
873,4365008,4665008,873,-6186,5356,570,244,-403,218,-0.755126953,0.653808594,0.0695800781,14.8925781,-24.597168,13.3056641
874,4370000,4670000,874,-6119,5255,490,196,-381,199,-0.746948242,0.641479492,0.0598144531,11.9628906,-23.2543945,12.1459961
875,4375008,4675008,875,-6118,5155,338,176,-347,184,-0.746826172,0.629272461,0.0412597656,10.7421875,-21.1791992,11.2304688
876,4380000,4680000,876,-6119,5050,257,178,-318,171,-0.746948242,0.616455078,0.0313720703,10.8642578,-19.4091797,10.4370117
877,4385008,4685008,877,-6135,4976,295,174,-303,167,-0.748901367,0.607421875,0.0360107422,10.6201172,-18.4936523,10.1928711
878,4390000,4690000,878,-6161,4932,347,173,-281,158,-0.752075195,0.602050781,0.0423583984,10.559082,-17.1508789,9.64355469
879,4395008,4695008,879,-6181,4912,367,185,-255,144,-0.754516602,0.599609375,0.0447998047,11.2915039,-15.5639648,8.7890625
880,4400000,4700000,880,-6159,4930,422,199,-225,136,-0.751831055,0.601806641,0.0515136719,12.1459961,-13.7329102,8.30078125
881,4405008,4705008,881,-6008,4944,413,206,-192,129,-0.733398438,0.603515625,0.0504150391,12.5732422,-11.71875,7.87353516
882,4410000,4710000,882,-5810,4945,349,206,-181,130,-0.709228516,0.603637695,0.0426025391,12.5732422,-11.0473633,7.93457031
883,4415008,4715008,883,-5735,5003,378,207,-173,136,-0.700073242,0.610717773,0.0461425781,12.6342773,-10.559082,8.30078125
884,4420000,4720000,884,-5724,5093,425,217,-153,140,-0.698730469,0.621704102,0.0518798828,13.2446289,-9.33837891,8.54492188
885,4425008,4725008,885,-5692,5125,480,219,-132,145,-0.694824219,0.625610352,0.05859375,13.3666992,-8.05664062,8.85009766
886,4430000,4730000,886,-5673,5160,537,211,-109,152,-0.692504883,0.629882812,0.0655517578,12.878418,-6.65283203,9.27734375
887,4435008,4735008,887,-5694,5245,649,184,-98,158,-0.695068359,0.640258789,0.0792236328,11.2304688,-5.98144531,9.64355469
888,4440000,4740000,888,-5686,5280,753,139,-85,160,-0.694091797,0.64453125,0.0919189453,8.48388672,-5.18798828,9.765625
889,4445008,4745008,889,-5693,5274,740,103,-53,161,-0.694946289,0.643798828,0.0903320312,6.28662109,-3.23486328,9.82666016
890,4450000,4750000,890,-5768,5267,719,77,-26,160,-0.704101562,0.642944336,0.0877685547,4.69970703,-1.58691406,9.765625
891,4455008,4755008,891,-5857,5267,712,49,0,154,-0.71496582,0.642944336,0.0869140625,2.99072266,0,9.39941406
892,4460000,4760000,892,-5944,5246,656,24,26,141,-0.725585938,0.640380859,0.080078125,1.46484375,1.58691406,8.60595703
893,4465008,4765008,893,-6040,5224,586,9,47,126,-0.737304688,0.637695312,0.0715332031,0.549316406,2.86865234,7.69042969
894,4470000,4770000,894,-6128,5239,548,-3,55,109,-0.748046875,0.639526367,0.0668945312,-0.183105469,3.35693359,6.65283203
895,4475008,4775008,895,-6224,5268,526,-9,55,89,-0.759765625,0.643066406,0.0642089844,-0.549316406,3.35693359,5.43212891
896,4480000,4780000,896,-6301,5280,557,-12,53,69,-0.769165039,0.64453125,0.0679931641,-0.732421875,3.23486328,4.21142578
897,4485008,4785008,897,-6309,5267,571,-21,48,48,-0.770141602,0.642944336,0.0697021484,-1.28173828,2.9296875,2.9296875
898,4490000,4790000,898,-6281,5281,526,-29,41,28,-0.766723633,0.64465332,0.0642089844,-1.77001953,2.50244141,1.70898438
899,4495008,4795008,899,-6218,5319,508,-32,29,10,-0.759033203,0.649291992,0.0620117188,-1.953125,1.77001953,0.610351562
900,4500000,4800000,900,-6137,5364,550,-32,13,-6,-0.749145508,0.654785156,0.0671386719,-1.953125,0.793457031,-0.366210938
901,4505008,4805008,901,-6052,5418,642,-33,1,-17,-0.738769531,0.661376953,0.0783691406,-2.01416016,0.0610351562,-1.03759766
902,4510000,4810000,902,-5972,5458,742,-41,-1,-27,-0.729003906,0.666259766,0.0905761719,-2.50244141,-0.0610351562,-1.64794922
903,4515008,4815008,903,-5875,5477,789,-62,6,-36,-0.717163086,0.668579102,0.0963134766,-3.78417969,0.366210938,-2.19726562
904,4520000,4820000,904,-5799,5503,790,-87,22,-45,-0.707885742,0.67175293,0.0964355469,-5.31005859,1.34277344,-2.74658203
905,4525008,4825008,905,-5769,5507,779,-115,39,-54,-0.704223633,0.672241211,0.0950927734,-7.01904297,2.38037109,-3.29589844
906,4530000,4830000,906,-5742,5471,744,-143,56,-63,-0.700927734,0.66784668,0.0908203125,-8.72802734,3.41796875,-3.84521484
907,4535008,4835008,907,-5724,5413,680,-167,75,-71,-0.698730469,0.660766602,0.0830078125,-10.1928711,4.57763672,-4.33349609
908,4540000,4840000,908,-5733,5366,615,-186,96,-80,-0.699829102,0.655029297,0.0750732422,-11.3525391,5.859375,-4.8828125
909,4545008,4845008,909,-5769,5344,565,-201,119,-88,-0.704223633,0.65234375,0.0689697266,-12.2680664,7.26318359,-5.37109375
910,4550000,4850000,910,-5811,5319,519,-213,140,-96,-0.709350586,0.649291992,0.0633544922,-13.0004883,8.54492188,-5.859375
911,4555008,4855008,911,-5850,5286,458,-222,159,-105,-0.714111328,0.645263672,0.0559082031,-13.5498047,9.70458984,-6.40869141
912,4560000,4860000,912,-5912,5258,397,-225,171,-113,-0.721679688,0.641845703,0.0484619141,-13.7329102,10.4370117,-6.89697266
913,4565008,4865008,913,-5989,5247,373,-223,179,-121,-0.731079102,0.64050293,0.0455322266,-13.6108398,10.925293,-7.38525391
914,4570000,4870000,914,-6045,5246,370,-220,187,-129,-0.737915039,0.640380859,0.0451660156,-13.4277344,11.4135742,-7.87353516
915,4575008,4875008,915,-6076,5256,374,-217,194,-135,-0.741699219,0.641601562,0.0456542969,-13.2446289,11.8408203,-8.23974609
916,4580000,4880000,916,-6097,5284,394,-217,203,-141,-0.744262695,0.645019531,0.0480957031,-13.2446289,12.3901367,-8.60595703
917,4585008,4885008,917,-6094,5314,416,-223,215,-144,-0.743896484,0.648681641,0.05078125,-13.6108398,13.1225586,-8.7890625
918,4590000,4890000,918,-6072,5347,434,-237,234,-146,-0.741210938,0.652709961,0.0529785156,-14.465332,14.2822266,-8.91113281
919,4595008,4895008,919,-6059,5392,439,-253,261,-149,-0.739624023,0.658203125,0.0535888672,-15.4418945,15.9301758,-9.09423828
920,4600000,4900000,920,-6038,5431,452,-269,294,-149,-0.737060547,0.662963867,0.0551757812,-16.418457,17.9443359,-9.09423828
921,4605008,4905008,921,-6022,5445,469,-291,327,-144,-0.735107422,0.664672852,0.0572509766,-17.7612305,19.9584961,-8.7890625
922,4610000,4910000,922,-6021,5483,471,-316,363,-134,-0.734985352,0.669311523,0.0574951172,-19.2871094,22.1557617,-8.17871094
923,4615008,4915008,923,-6005,5538,477,-342,400,-121,-0.733032227,0.676025391,0.0582275391,-20.8740234,24.4140625,-7.38525391
924,4620000,4920000,924,-5961,5556,507,-370,438,-103,-0.727661133,0.678222656,0.0618896484,-22.5830078,26.7333984,-6.28662109
925,4625008,4925008,925,-5908,5604,554,-405,488,-78,-0.721191406,0.684082031,0.0676269531,-24.7192383,29.7851562,-4.76074219
926,4630000,4930000,926,-5846,5714,587,-454,551,-44,-0.713623047,0.697509766,0.0716552734,-27.7099609,33.6303711,-2.68554688
927,4635008,4935008,927,-5790,5833,622,-520,623,0,-0.706787109,0.712036133,0.0759277344,-31.7382812,38.0249023,0
928,4640000,4940000,928,-5781,5868,633,-600,704,35,-0.705688477,0.716308594,0.0772705078,-36.6210938,42.96875,2.13623047
929,4645008,4945008,929,-5806,5788,600,-676,790,54,-0.708740234,0.706542969,0.0732421875,-41.2597656,48.2177734,3.29589844
930,4650000,4950000,930,-5825,5670,543,-737,863,66,-0.71105957,0.692138672,0.0662841797,-44.9829102,52.6733398,4.02832031
931,4655008,4955008,931,-5854,5546,412,-774,912,76,-0.714599609,0.677001953,0.0502929688,-47.2412109,55.6640625,4.63867188
932,4660000,4960000,932,-5890,5482,266,-775,929,89,-0.718994141,0.669189453,0.0324707031,-47.3022461,56.7016602,5.43212891
933,4665008,4965008,933,-5922,5493,193,-756,914,102,-0.722900391,0.670532227,0.0235595703,-46.1425781,55.7861328,6.22558594
934,4670000,4970000,934,-5924,5522,191,-733,890,111,-0.723144531,0.674072266,0.0233154297,-44.7387695,54.3212891,6.77490234
935,4675008,4975008,935,-5822,5564,239,-714,876,120,-0.710693359,0.679199219,0.0291748047,-43.5791016,53.4667969,7.32421875
936,4680000,4980000,936,-5802,5609,300,-704,872,126,-0.708251953,0.684692383,0.0366210938,-42.96875,53.2226562,7.69042969
937,4685008,4985008,937,-5837,5641,336,-694,874,129,-0.712524414,0.688598633,0.041015625,-42.3583984,53.3447266,7.87353516
938,4690000,4990000,938,-5833,5650,324,-687,891,129,-0.712036133,0.689697266,0.0395507812,-41.9311523,54.3823242,7.87353516
939,4695008,4995008,939,-5802,5658,260,-675,924,131,-0.708251953,0.690673828,0.0317382812,-41.1987305,56.3964844,7.99560547
940,4700000,5000000,940,-5741,5675,239,-657,972,140,-0.700805664,0.692749023,0.0291748047,-40.1000977,59.3261719,8.54492188
941,4705008,5005008,941,-5768,5712,208,-649,1027,152,-0.704101562,0.697265625,0.025390625,-39.6118164,62.6831055,9.27734375
942,4710000,5010000,942,-5746,5739,120,-647,1084,173,-0.701416016,0.700561523,0.0146484375,-39.4897461,66.1621094,10.559082
943,4715008,5015008,943,-5731,5779,61,-657,1140,207,-0.699584961,0.705444336,0.00744628906,-40.1000977,69.5800781,12.6342773
944,4720000,5020000,944,-5795,5819,-22,-680,1197,241,-0.707397461,0.710327148,-0.00268554688,-41.5039062,73.059082,14.7094727
945,4725008,5025008,945,-5804,5830,-105,-704,1253,274,-0.708496094,0.711669922,-0.0128173828,-42.96875,76.4770508,16.7236328
946,4730000,5030000,946,-5777,5870,-198,-737,1290,318,-0.705200195,0.716552734,-0.0241699219,-44.9829102,78.7353516,19.4091797
947,4735008,5035008,947,-5722,5922,-288,-772,1313,377,-0.698486328,0.722900391,-0.03515625,-47.1191406,80.1391602,23.0102539
948,4740000,5040000,948,-5677,5976,-294,-816,1311,452,-0.692993164,0.729492188,-0.0358886719,-49.8046875,80.0170898,27.5878906
949,4745008,5045008,949,-5680,5997,-280,-874,1287,517,-0.693359375,0.732055664,-0.0341796875,-53.3447266,78.5522461,31.5551758
950,4750000,5050000,950,-5689,5909,-348,-918,1263,544,-0.694458008,0.721313477,-0.0424804688,-56.0302734,77.0874023,33.203125
951,4755008,5055008,951,-5648,5722,-502,-914,1236,547,-0.689453125,0.698486328,-0.0612792969,-55.7861328,75.4394531,33.3862305
952,4760000,5060000,952,-5650,5602,-597,-847,1205,548,-0.689697266,0.683837891,-0.0728759766,-51.6967773,73.5473633,33.4472656
953,4765008,5065008,953,-5637,5619,-608,-752,1165,549,-0.688110352,0.685913086,-0.07421875,-45.8984375,71.105957,33.5083008
954,4770000,5070000,954,-5625,5728,-583,-661,1110,553,-0.686645508,0.69921875,-0.0711669922,-40.3442383,67.7490234,33.7524414
955,4775008,5075008,955,-5676,5881,-484,-592,1049,562,-0.692871094,0.717895508,-0.0590820312,-36.1328125,64.0258789,34.3017578
956,4780000,5080000,956,-5715,6013,-371,-559,991,572,-0.697631836,0.734008789,-0.0452880859,-34.1186523,60.4858398,34.9121094
957,4785008,5085008,957,-5808,6146,-293,-545,949,580,-0.708984375,0.750244141,-0.0357666016,-33.2641602,57.9223633,35.4003906
958,4790000,5090000,958,-5919,6276,-232,-537,923,572,-0.72253418,0.766113281,-0.0283203125,-32.7758789,56.3354492,34.9121094
959,4795008,5095008,959,-5970,6370,-220,-523,904,549,-0.728759766,0.777587891,-0.0268554688,-31.9213867,55.1757812,33.5083008
960,4800000,5100000,960,-5869,6446,-242,-508,896,521,-0.716430664,0.786865234,-0.0295410156,-31.0058594,54.6875,31.7993164
961,4805008,5105008,961,-5796,6520,-263,-507,922,498,-0.707519531,0.795898438,-0.0321044922,-30.9448242,56.2744141,30.3955078
962,4810000,5110000,962,-5881,6549,-343,-507,987,473,-0.717895508,0.799438477,-0.0418701172,-30.9448242,60.2416992,28.8696289
963,4815008,5115008,963,-5849,6462,-478,-500,1050,440,-0.713989258,0.788818359,-0.0583496094,-30.5175781,64.0869141,26.8554688
