sample_index,offset_us,timestamp_us,sequence,accel_x_raw,accel_y_raw,accel_z_raw,gyro_x_raw,gyro_y_raw,gyro_z_raw,accel_x_g,accel_y_g,accel_z_g,gyro_x_dps,gyro_y_dps,gyro_z_dps
0,0,300000,0,-3982,3881,879,581,-2490,2192,-0.486083984,0.473754883,0.107299805,35.4614258,-151.977539,133.789062
1,5008,305008,1,-3763,4006,926,615,-2447,2178,-0.459350586,0.489013672,0.113037109,37.5366211,-149.353027,132.93457
2,10000,310000,2,-3633,4103,1036,641,-2420,2164,-0.443481445,0.500854492,0.126464844,39.1235352,-147.705078,132.080078
3,15008,315008,3,-3621,4302,1356,647,-2401,2151,-0.442016602,0.525146484,0.165527344,39.4897461,-146.54541,131.286621
4,20000,320000,4,-3692,4761,1903,619,-2375,2134,-0.450683594,0.581176758,0.232299805,37.7807617,-144.958496,130.249023
5,25008,325008,5,-3716,5370,2500,580,-2352,2112,-0.453613281,0.655517578,0.305175781,35.4003906,-143.554688,128.90625
6,30000,330000,6,-3645,5861,3049,539,-2358,2091,-0.444946289,0.715454102,0.372192383,32.8979492,-143.920898,127.624512
7,35008,335008,7,-3560,6163,3521,472,-2393,2080,-0.434570312,0.752319336,0.42980957,28.8085938,-146.057129,126.953125
8,40000,340000,8,-3544,6476,3942,360,-2428,2069,-0.432617188,0.790527344,0.481201172,21.9726562,-148.193359,126.281738
9,45008,345008,9,-3506,6858,4424,225,-2450,2050,-0.427978516,0.837158203,0.540039062,13.7329102,-149.536133,125.12207
10,50000,350000,10,-3395,7145,4978,105,-2462,2040,-0.414428711,0.872192383,0.607666016,6.40869141,-150.268555,124.511719
11,55008,355008,11,-3275,7184,5358,38,-2475,2048,-0.399780273,0.876953125,0.654052734,2.31933594,-151.062012,125
12,60000,360000,12,-3179,6937,5370,29,-2501,2069,-0.388061523,0.846801758,0.655517578,1.77001953,-152.648926,126.281738
13,65008,365008,13,-3095,6499,4999,43,-2533,2099,-0.377807617,0.793334961,0.610229492,2.62451172,-154.602051,128.112793
14,70000,370000,14,-2993,6082,4428,68,-2553,2132,-0.365356445,0.742431641,0.540527344,4.15039062,-155.822754,130.126953
15,75008,375008,15,-2840,5847,3955,124,-2550,2164,-0.346679688,0.713745117,0.482788086,7.56835938,-155.639648,132.080078
16,80000,380000,16,-2670,5782,3661,214,-2521,2187,-0.325927734,0.705810547,0.446899414,13.0615234,-153.869629,133.483887
17,85008,385008,17,-2448,5766,3425,325,-2479,2200,-0.298828125,0.703857422,0.41809082,19.8364258,-151.306152,134.277344
18,90000,390000,18,-2185,5666,3145,436,-2441,2216,-0.266723633,0.691650391,0.383911133,26.6113281,-148.986816,135.253906
19,95008,395008,19,-1972,5482,2822,544,-2406,2228,-0.240722656,0.669189453,0.344482422,33.203125,-146.850586,135.986328
20,100000,400000,20,-1826,5358,2616,647,-2362,2221,-0.222900391,0.654052734,0.319335938,39.4897461,-144.165039,135.559082
21,105008,405008,21,-1766,5408,2666,726,-2300,2198,-0.215576172,0.66015625,0.325439453,44.3115234,-140.380859,134.155273
22,110000,410000,22,-1777,5800,3040,764,-2225,2150,-0.216918945,0.708007812,0.37109375,46.6308594,-135.803223,131.225586
23,115008,415008,23,-1739,6501,3743,735,-2155,2084,-0.212280273,0.793579102,0.45690918,44.8608398,-131.530762,127.197266
24,120000,420000,24,-1707,7261,4458,617,-2120,2038,-0.208374023,0.886352539,0.544189453,37.6586914,-129.394531,124.389648
25,125008,425008,25,-1726,7895,4923,442,-2141,2016,-0.210693359,0.963745117,0.600952148,26.9775391,-130.67627,123.046875
26,130000,430000,26,-1728,8220,5204,242,-2202,2011,-0.2109375,1.00341797,0.635253906,14.7705078,-134.399414,122.741699
27,135008,435008,27,-1743,8201,5321,22,-2279,2025,-0.212768555,1.00109863,0.649536133,1.34277344,-139.099121,123.596191
28,140000,440000,28,-1747,8002,5330,-196,-2354,2048,-0.213256836,0.976806641,0.650634766,-11.9628906,-143.676758,125
29,145008,445008,29,-1688,7730,5326,-370,-2419,2079,-0.206054688,0.943603516,0.650146484,-22.5830078,-147.644043,126.89209
30,150000,450000,30,-1561,7408,5321,-461,-2475,2115,-0.190551758,0.904296875,0.649536133,-28.137207,-151.062012,129.089355
31,155008,455008,31,-1364,7066,5302,-456,-2511,2145,-0.166503906,0.862548828,0.647216797,-27.8320312,-153.259277,130.92041
32,160000,460000,32,-1119,6802,5223,-370,-2519,2165,-0.13659668,0.830322266,0.637573242,-22.5830078,-153.747559,132.141113
33,165008,465008,33,-916,6728,5095,-241,-2511,2173,-0.111816406,0.821289062,0.621948242,-14.7094727,-153.259277,132.629395
34,170000,470000,34,-746,6770,4944,-109,-2492,2167,-0.0910644531,0.826416016,0.603515625,-6.65283203,-152.099609,132.263184
35,175008,475008,35,-497,6869,4772,26,-2461,2150,-0.0606689453,0.838500977,0.582519531,1.58691406,-150.20752,131.225586
36,180000,480000,36,-140,7022,4564,178,-2417,2130,-0.0170898438,0.857177734,0.557128906,10.8642578,-147.521973,130.004883
37,185008,485008,37,166,7201,4403,341,-2358,2106,0.0202636719,0.87902832,0.537475586,20.8129883,-143.920898,128.540039
38,190000,490000,38,360,7432,4423,486,-2279,2070,0.0439453125,0.907226562,0.539916992,29.6630859,-139.099121,126.342773
39,195008,495008,39,485,7776,4679,597,-2185,2029,0.0592041016,0.94921875,0.571166992,36.4379883,-133.361816,123.840332
40,200000,500000,40,543,8217,5096,665,-2088,1983,0.0662841797,1.00305176,0.622070312,40.5883789,-127.441406,121.032715
41,205008,505008,41,604,8630,5460,696,-2018,1937,0.0737304688,1.0534668,0.666503906,42.4804688,-123.168945,118.225098
42,210000,510000,42,694,8918,5701,708,-1984,1907,0.0847167969,1.08862305,0.695922852,43.2128906,-121.09375,116.394043
43,215008,515008,43,772,9088,5870,700,-1971,1888,0.0942382812,1.109375,0.716552734,42.7246094,-120.300293,115.234375
44,220000,520000,44,819,9166,6000,672,-1960,1864,0.0999755859,1.11889648,0.732421875,41.015625,-119.628906,113.769531
45,225008,525008,45,849,9147,6111,632,-1943,1835,0.103637695,1.11657715,0.74597168,38.5742188,-118.591309,111.999512
46,230000,530000,46,881,9075,6193,586,-1924,1810,0.107543945,1.10778809,0.755981445,35.7666016,-117.431641,110.473633
47,235008,535008,47,918,8996,6251,550,-1905,1787,0.112060547,1.09814453,0.763061523,33.5693359,-116.271973,109.069824
48,240000,540000,48,955,8949,6330,526,-1881,1766,0.116577148,1.09240723,0.772705078,32.1044922,-114.807129,107.788086
49,245008,545008,49,961,8938,6407,499,-1852,1747,0.11730957,1.09106445,0.782104492,30.456543,-113.037109,106.628418
50,250000,550000,50,942,8909,6399,464,-1825,1729,0.114990234,1.08752441,0.78112793,28.3203125,-111.38916,105.529785
51,255008,555008,51,1005,8806,6200,431,-1807,1715,0.122680664,1.07495117,0.756835938,26.3061523,-110.290527,104.675293
52,260000,560000,52,1133,8621,5823,419,-1791,1711,0.138305664,1.05236816,0.71081543,25.5737305,-109.313965,104.431152
53,265008,565008,53,1282,8337,5364,430,-1768,1716,0.156494141,1.0177002,0.654785156,26.2451172,-107.910156,104.736328
54,270000,570000,54,1427,8010,4891,460,-1731,1719,0.174194336,0.977783203,0.597045898,28.0761719,-105.651855,104.919434
55,275008,575008,55,1540,7712,4481,514,-1674,1709,0.187988281,0.94140625,0.54699707,31.3720703,-102.172852,104.309082
56,280000,580000,56,1679,7465,4148,599,-1606,1690,0.204956055,0.911254883,0.506347656,36.5600586,-98.0224609,103.149414
57,285008,585008,57,1851,7317,3925,718,-1533,1676,0.225952148,0.893188477,0.479125977,43.8232422,-93.5668945,102.294922
58,290000,590000,58,1947,7308,3961,849,-1450,1665,0.237670898,0.892089844,0.483520508,51.8188477,-88.5009766,101.623535
59,295008,595008,59,1906,7490,4295,952,-1353,1641,0.232666016,0.914306641,0.524291992,58.1054688,-82.5805664,100.158691
60,300000,600000,60,1786,7912,4837,1002,-1262,1609,0.218017578,0.965820312,0.590454102,61.1572266,-77.0263672,98.2055664
61,305008,605008,61,1674,8498,5460,987,-1197,1573,0.204345703,1.03735352,0.666503906,60.2416992,-73.059082,96.0083008
62,310000,610000,62,1611,9094,5947,909,-1169,1536,0.196655273,1.11010742,0.725952148,55.480957,-71.3500977,93.75
63,315008,615008,63,1630,9594,6183,779,-1176,1508,0.198974609,1.17114258,0.754760742,47.5463867,-71.7773438,92.0410156
64,320000,620000,64,1643,9937,6198,612,-1202,1488,0.200561523,1.2130127,0.756591797,37.3535156,-73.3642578,90.8203125
65,325008,625008,65,1632,10041,6019,434,-1230,1460,0.19921875,1.22570801,0.734741211,26.4892578,-75.0732422,89.1113281
66,330000,630000,66,1724,9877,5712,267,-1247,1425,0.210449219,1.20568848,0.697265625,16.2963867,-76.1108398,86.9750977
67,335008,635008,67,1767,9478,5379,136,-1239,1400,0.215698242,1.15698242,0.656616211,8.30078125,-75.6225586,85.4492188
68,340000,640000,68,1718,8961,4981,70,-1223,1374,0.209716797,1.09387207,0.608032227,4.27246094,-74.6459961,83.8623047
69,345008,645008,69,1756,8480,4556,80,-1211,1348,0.214355469,1.03515625,0.556152344,4.8828125,-73.9135742,82.2753906
70,350000,650000,70,1850,8127,4205,146,-1184,1324,0.225830078,0.99206543,0.513305664,8.91113281,-72.265625,80.8105469
71,355008,655008,71,1930,7886,3911,241,-1144,1298,0.235595703,0.962646484,0.477416992,14.7094727,-69.8242188,79.2236328
72,360000,660000,72,2024,7716,3663,349,-1100,1276,0.247070312,0.941894531,0.447143555,21.3012695,-67.1386719,77.8808594
73,365008,665008,73,2112,7608,3475,460,-1053,1253,0.2578125,0.928710938,0.424194336,28.0761719,-64.2700195,76.4770508
74,370000,670000,74,2206,7539,3369,565,-1005,1229,0.269287109,0.920288086,0.411254883,34.4848633,-61.340332,75.012207
75,375008,675008,75,2308,7510,3370,656,-950,1204,0.281738281,0.916748047,0.411376953,40.0390625,-57.9833984,73.4863281
76,380000,680000,76,2346,7549,3449,729,-891,1179,0.286376953,0.921508789,0.421020508,44.4946289,-54.3823242,71.9604492
77,385008,685008,77,2309,7652,3565,783,-840,1153,0.281860352,0.934082031,0.435180664,47.7905273,-51.2695312,70.3735352
78,390000,690000,78,2249,7769,3720,818,-801,1135,0.274536133,0.948364258,0.454101562,49.9267578,-48.8891602,69.2749023
79,395008,695008,79,2189,7871,3871,825,-782,1129,0.267211914,0.96081543,0.47253418,50.3540039,-47.7294922,68.9086914
80,400000,700000,80,2159,7954,3965,805,-782,1132,0.263549805,0.970947266,0.484008789,49.1333008,-47.7294922,69.0917969
81,405008,705008,81,2187,8026,4004,764,-795,1137,0.266967773,0.979736328,0.488769531,46.6308594,-48.5229492,69.3969727
82,410000,710000,82,2243,8097,4034,699,-812,1148,0.273803711,0.98840332,0.492431641,42.6635742,-49.5605469,70.0683594
83,415008,715008,83,2299,8161,4051,619,-833,1156,0.280639648,0.99621582,0.494506836,37.7807617,-50.8422852,70.5566406
84,420000,720000,84,2331,8200,4034,536,-853,1162,0.284545898,1.00097656,0.492431641,32.7148438,-52.0629883,70.9228516
85,425008,725008,85,2362,8181,3971,459,-875,1168,0.288330078,0.998657227,0.484741211,28.0151367,-53.4057617,71.2890625
86,430000,730000,86,2413,8073,3848,392,-901,1174,0.294555664,0.985473633,0.469726562,23.9257812,-54.9926758,71.6552734
87,435008,735008,87,2499,7909,3650,339,-928,1180,0.305053711,0.965454102,0.445556641,20.690918,-56.640625,72.0214844
88,440000,740000,88,2630,7734,3422,308,-949,1185,0.321044922,0.944091797,0.417724609,18.7988281,-57.9223633,72.3266602
89,445008,745008,89,2761,7544,3231,292,-960,1186,0.337036133,0.920898438,0.39440918,17.8222656,-58.59375,72.3876953
90,450000,750000,90,2909,7379,3073,287,-959,1181,0.355102539,0.900756836,0.37512207,17.5170898,-58.5327148,72.0825195
91,455008,755008,91,3095,7269,2969,294,-946,1172,0.377807617,0.887329102,0.362426758,17.9443359,-57.7392578,71.5332031
92,460000,760000,92,3253,7190,2918,314,-921,1157,0.397094727,0.877685547,0.356201172,19.1650391,-56.2133789,70.6176758
93,465008,765008,93,3361,7176,2908,344,-890,1136,0.41027832,0.875976562,0.354980469,20.9960938,-54.3212891,69.3359375
94,470000,770000,94,3419,7248,2950,378,-856,1109,0.417358398,0.884765625,0.360107422,23.0712891,-52.2460938,67.6879883
95,475008,775008,95,3463,7376,3062,399,-824,1082,0.422729492,0.900390625,0.373779297,24.3530273,-50.2929688,66.0400391
96,480000,780000,96,3506,7535,3211,402,-797,1060,0.427978516,0.919799805,0.391967773,24.5361328,-48.6450195,64.6972656
97,485008,785008,97,3515,7658,3335,387,-774,1047,0.429077148,0.934814453,0.407104492,23.6206055,-47.2412109,63.9038086
98,490000,790000,98,3521,7701,3397,356,-763,1040,0.42980957,0.940063477,0.414672852,21.7285156,-46.5698242,63.4765625
99,495008,795008,99,3526,7655,3378,316,-763,1036,0.430419922,0.934448242,0.412353516,19.2871094,-46.5698242,63.2324219
100,500000,800000,100,3533,7563,3320,269,-766,1032,0.431274414,0.923217773,0.405273438,16.418457,-46.7529297,62.9882812
101,505008,805008,101,3562,7491,3255,222,-764,1024,0.434814453,0.914428711,0.397338867,13.5498047,-46.6308594,62.5
102,510000,810000,102,3603,7436,3163,187,-760,1015,0.439819336,0.907714844,0.386108398,11.4135742,-46.3867188,61.9506836
103,515008,815008,103,3649,7382,3045,161,-757,1008,0.44543457,0.901123047,0.371704102,9.82666016,-46.2036133,61.5234375
104,520000,820000,104,3711,7327,2948,143,-755,1006,0.45300293,0.89440918,0.359863281,8.72802734,-46.081543,61.4013672
105,525008,825008,105,3772,7281,2906,132,-746,1005,0.460449219,0.888793945,0.354736328,8.05664062,-45.5322266,61.340332
106,530000,830000,106,3802,7233,2909,127,-729,1002,0.464111328,0.88293457,0.355102539,7.75146484,-44.4946289,61.1572266
107,535008,835008,107,3778,7201,2944,132,-711,996,0.461181641,0.87902832,0.359375,8.05664062,-43.3959961,60.7910156
108,540000,840000,108,3754,7240,3009,143,-695,986,0.458251953,0.883789062,0.36730957,8.72802734,-42.4194336,60.1806641
109,545008,845008,109,3777,7320,3066,156,-677,972,0.46105957,0.893554688,0.374267578,9.52148438,-41.3208008,59.3261719
110,550000,850000,110,3800,7409,3084,174,-659,958,0.463867188,0.904418945,0.376464844,10.6201172,-40.222168,58.4716797
111,555008,855008,111,3801,7518,3066,195,-644,939,0.463989258,0.917724609,0.374267578,11.9018555,-39.3066406,57.3120117
112,560000,860000,112,3804,7630,3032,209,-629,913,0.464355469,0.931396484,0.370117188,12.7563477,-38.3911133,55.7250977
113,565008,865008,113,3828,7712,2991,215,-611,885,0.467285156,0.94140625,0.365112305,13.1225586,-37.2924805,54.0161133
114,570000,870000,114,3865,7731,2952,212,-587,853,0.471801758,0.943725586,0.360351562,12.9394531,-35.8276367,52.0629883
115,575008,875008,115,3904,7707,2902,207,-559,814,0.4765625,0.940795898,0.354248047,12.6342773,-34.1186523,49.6826172
116,580000,880000,116,3944,7682,2871,203,-528,769,0.481445312,0.937744141,0.350463867,12.3901367,-32.2265625,46.9360352
117,585008,885008,117,3960,7655,2861,195,-489,718,0.483398438,0.934448242,0.349243164,11.9018555,-29.8461914,43.8232422
118,590000,890000,118,3970,7624,2844,187,-449,664,0.484619141,0.930664062,0.347167969,11.4135742,-27.4047852,40.5273438
119,595008,895008,119,3982,7600,2841,182,-411,612,0.486083984,0.927734375,0.346801758,11.1083984,-25.0854492,37.3535156
120,600000,900000,120,3996,7589,2837,180,-371,565,0.487792969,0.926391602,0.346313477,10.9863281,-22.644043,34.4848633
121,605008,905008,121,4025,7596,2802,180,-332,517,0.491333008,0.927246094,0.342041016,10.9863281,-20.2636719,31.5551758
122,610000,910000,122,4051,7610,2769,181,-297,473,0.494506836,0.928955078,0.338012695,11.0473633,-18.1274414,28.8696289
123,615008,915008,123,4045,7637,2763,178,-260,433,0.493774414,0.932250977,0.337280273,10.8642578,-15.8691406,26.4282227
124,620000,920000,124,4033,7679,2742,168,-225,393,0.49230957,0.93737793,0.334716797,10.2539062,-13.7329102,23.9868164
125,625008,925008,125,4032,7747,2735,155,-188,350,0.4921875,0.945678711,0.333862305,9.46044922,-11.4746094,21.3623047
126,630000,930000,126,4022,7862,2777,137,-145,304,0.490966797,0.959716797,0.338989258,8.36181641,-8.85009766,18.5546875
127,635008,935008,127,3990,7993,2823,118,-103,257,0.487060547,0.975708008,0.344604492,7.20214844,-6.28662109,15.6860352
128,640000,940000,128,3935,8084,2827,94,-71,214,0.48034668,0.986816406,0.345092773,5.73730469,-4.33349609,13.0615234
129,645008,945008,129,3869,8123,2806,77,-50,179,0.472290039,0.991577148,0.342529297,4.69970703,-3.05175781,10.925293
130,650000,950000,130,3817,8161,2810,69,-30,140,0.465942383,0.99621582,0.343017578,4.21142578,-1.83105469,8.54492188
131,655008,955008,131,3804,8231,2838,60,-2,91,0.464355469,1.00476074,0.346435547,3.66210938,-0.122070312,5.55419922
132,660000,960000,132,3781,8320,2872,51,33,35,0.461547852,1.015625,0.350585938,3.11279297,2.01416016,2.13623047
133,665008,965008,133,3746,8394,2884,45,65,-22,0.457275391,1.0246582,0.352050781,2.74658203,3.96728516,-1.34277344
134,670000,970000,134,3722,8430,2876,42,92,-78,0.454345703,1.02905273,0.351074219,2.56347656,5.61523438,-4.76074219
135,675008,975008,135,3750,8422,2869,40,118,-134,0.457763672,1.02807617,0.350219727,2.44140625,7.20214844,-8.17871094
136,680000,980000,136,3817,8383,2861,36,149,-188,0.465942383,1.02331543,0.349243164,2.19726562,9.09423828,-11.4746094
137,685008,985008,137,3879,8370,2893,38,191,-240,0.473510742,1.02172852,0.353149414,2.31933594,11.6577148,-14.6484375
138,690000,990000,138,3934,8451,3013,43,243,-298,0.480224609,1.03161621,0.367797852,2.62451172,14.831543,-18.1884766
139,695008,995008,139,3965,8628,3201,42,307,-361,0.484008789,1.05322266,0.39074707,2.56347656,18.737793,-22.0336914
140,700000,1000000,140,3952,8864,3401,30,372,-427,0.482421875,1.08203125,0.415161133,1.83105469,22.7050781,-26.0620117
141,705008,1005008,141,3900,9086,3594,5,428,-495,0.476074219,1.10913086,0.438720703,0.305175781,26.1230469,-30.2124023
142,710000,1010000,142,3827,9249,3790,-41,478,-566,0.467163086,1.12902832,0.462646484,-2.50244141,29.1748047,-34.5458984
143,715008,1015008,143,3775,9385,3929,-105,526,-648,0.46081543,1.14562988,0.479614258,-6.40869141,32.1044922,-39.5507812
144,720000,1020000,144,3791,9513,3991,-173,574,-739,0.462768555,1.16125488,0.487182617,-10.559082,35.0341797,-45.1049805
145,725008,1025008,145,3842,9625,4049,-240,626,-835,0.468994141,1.17492676,0.494262695,-14.6484375,38.2080078,-50.9643555
146,730000,1030000,146,3863,9741,4106,-307,691,-939,0.471557617,1.18908691,0.501220703,-18.737793,42.175293,-57.3120117
147,735008,1035008,147,3852,9865,4159,-369,764,-1051,0.470214844,1.20422363,0.50769043,-22.5219727,46.6308594,-64.1479492
148,740000,1040000,148,3876,9949,4207,-422,834,-1169,0.473144531,1.21447754,0.513549805,-25.7568359,50.9033203,-71.3500977
149,745008,1045008,149,3932,10000,4252,-469,903,-1283,0.479980469,1.22070312,0.519042969,-28.6254883,55.1147461,-78.3081055
150,750000,1050000,150,3993,10074,4306,-512,977,-1398,0.487426758,1.22973633,0.525634766,-31.25,59.6313477,-85.3271484
151,755008,1055008,151,4064,10166,4353,-554,1056,-1510,0.49609375,1.2409668,0.53137207,-33.8134766,64.453125,-92.1630859
152,760000,1060000,152,4157,10250,4401,-593,1133,-1616,0.507446289,1.2512207,0.537231445,-36.1938477,69.152832,-98.6328125
153,765008,1065008,153,4269,10313,4468,-624,1212,-1722,0.521118164,1.25891113,0.545410156,-38.0859375,73.9746094,-105.102539
154,770000,1070000,154,4379,10339,4544,-654,1298,-1829,0.534545898,1.26208496,0.5546875,-39.9169922,79.2236328,-111.633301
155,775008,1075008,155,4504,10346,4639,-688,1383,-1940,0.549804688,1.26293945,0.56628418,-41.9921875,84.4116211,-118.408203
156,780000,1080000,156,4668,10309,4802,-730,1473,-2052,0.569824219,1.25842285,0.586181641,-44.5556641,89.9047852,-125.244141
157,785008,1085008,157,4819,10226,4956,-776,1567,-2156,0.588256836,1.24829102,0.604980469,-47.3632812,95.6420898,-131.591797
158,790000,1090000,158,4919,10136,5049,-813,1655,-2261,0.600463867,1.23730469,0.616333008,-49.621582,101.013184,-138.000488
159,795008,1095008,159,5005,10037,5085,-849,1738,-2362,0.610961914,1.22521973,0.620727539,-51.8188477,106.079102,-144.165039
160,800000,1100000,160,5101,9925,5028,-888,1809,-2450,0.622680664,1.21154785,0.613769531,-54.1992188,110.412598,-149.536133
161,805008,1105008,161,5179,9799,4902,-936,1871,-2526,0.632202148,1.19616699,0.598388672,-57.1289062,114.196777,-154.174805
162,810000,1110000,162,5173,9670,4762,-992,1933,-2594,0.631469727,1.18041992,0.581298828,-60.546875,117.980957,-158.325195
163,815008,1115008,163,5069,9535,4669,-1058,1999,-2652,0.618774414,1.16394043,0.569946289,-64.5751953,122.009277,-161.865234
164,820000,1120000,164,4878,9412,4677,-1123,2067,-2698,0.595458984,1.14892578,0.570922852,-68.5424805,126.159668,-164.672852
165,825008,1125008,165,4624,9362,4810,-1175,2138,-2732,0.564453125,1.14282227,0.587158203,-71.7163086,130.493164,-166.748047
166,830000,1130000,166,4388,9377,4993,-1211,2195,-2757,0.535644531,1.14465332,0.60949707,-73.9135742,133.972168,-168.273926
167,835008,1135008,167,4234,9376,5130,-1234,2233,-2773,0.516845703,1.14453125,0.626220703,-75.3173828,136.291504,-169.250488
168,840000,1140000,168,4128,9330,5158,-1251,2260,-2767,0.50390625,1.13891602,0.629638672,-76.3549805,137.939453,-168.884277
169,845008,1145008,169,4030,9224,5106,-1257,2269,-2739,0.491943359,1.12597656,0.623291016,-76.7211914,138.48877,-167.175293
170,850000,1150000,170,3981,9028,5101,-1257,2270,-2705,0.485961914,1.10205078,0.622680664,-76.7211914,138.549805,-165.100098
171,855008,1155008,171,3969,8724,5103,-1251,2288,-2669,0.48449707,1.06494141,0.622924805,-76.3549805,139.648438,-162.902832
172,860000,1160000,172,3890,8374,5058,-1215,2314,-2640,0.474853516,1.0222168,0.617431641,-74.1577148,141.235352,-161.132812
173,865008,1165008,173,3769,8088,5000,-1142,2346,-2624,0.460083008,0.987304688,0.610351562,-69.7021484,143.188477,-160.15625
174,870000,1170000,174,3682,7935,4952,-1047,2383,-2623,0.449462891,0.96862793,0.604492188,-63.9038086,145.446777,-160.095215
175,875008,1175008,175,3649,7864,4963,-944,2425,-2628,0.44543457,0.959960938,0.605834961,-57.6171875,148.010254,-160.400391
176,880000,1180000,176,3603,7782,4987,-845,2481,-2629,0.439819336,0.949951172,0.608764648,-51.574707,151.428223,-160.461426
177,885008,1185008,177,3485,7662,4900,-750,2527,-2619,0.425415039,0.935302734,0.598144531,-45.7763672,154.23584,-159.851074
178,890000,1190000,178,3366,7528,4709,-664,2553,-2598,0.410888672,0.918945312,0.574829102,-40.5273438,155.822754,-158.569336
179,895008,1195008,179,3232,7468,4584,-595,2574,-2575,0.39453125,0.911621094,0.559570312,-36.315918,157.104492,-157.165527
180,900000,1200000,180,3038,7532,4538,-551,2602,-2561,0.370849609,0.919433594,0.553955078,-33.6303711,158.813477,-156.311035
181,905008,1205008,181,2831,7663,4506,-530,2622,-2554,0.345581055,0.935424805,0.550048828,-32.3486328,160.03418,-155.883789
182,910000,1210000,182,2594,7795,4595,-528,2638,-2549,0.316650391,0.951538086,0.560913086,-32.2265625,161.010742,-155.578613
183,915008,1215008,183,2286,7912,4769,-543,2659,-2545,0.279052734,0.965820312,0.58215332,-33.1420898,162.29248,-155.334473
184,920000,1220000,184,1953,7942,4869,-567,2666,-2536,0.23840332,0.969482422,0.594360352,-34.6069336,162.719727,-154.785156
185,925008,1225008,185,1600,7833,4853,-601,2653,-2514,0.1953125,0.956176758,0.592407227,-36.6821289,161.92627,-153.442383
186,930000,1230000,186,1180,7665,4730,-647,2627,-2487,0.144042969,0.935668945,0.577392578,-39.4897461,160.339355,-151.794434
187,935008,1235008,187,748,7542,4574,-692,2592,-2463,0.0913085938,0.920654297,0.558349609,-42.2363281,158.203125,-150.32959
188,940000,1240000,188,366,7496,4553,-730,2560,-2442,0.0446777344,0.915039062,0.555786133,-44.5556641,156.25,-149.047852
189,945008,1245008,189,34,7434,4603,-754,2538,-2422,0.00415039062,0.907470703,0.561889648,-46.0205078,154.907227,-147.827148
190,950000,1250000,190,-300,7277,4562,-755,2510,-2394,-0.0366210938,0.888305664,0.556884766,-46.081543,153.198242,-146.118164
191,955008,1255008,191,-659,7119,4531,-747,2474,-2363,-0.0804443359,0.869018555,0.553100586,-45.5932617,151.000977,-144.226074
192,960000,1260000,192,-1009,7036,4567,-748,2444,-2342,-0.123168945,0.858886719,0.557495117,-45.6542969,149.169922,-142.944336
193,965008,1265008,193,-1316,7060,4651,-754,2421,-2337,-0.160644531,0.861816406,0.567749023,-46.0205078,147.766113,-142.63916
194,970000,1270000,194,-1521,7176,4751,-756,2395,-2344,-0.185668945,0.875976562,0.579956055,-46.1425781,146.179199,-143.066406
195,975008,1275008,195,-1622,7263,4801,-760,2365,-2350,-0.197998047,0.88659668,0.58605957,-46.3867188,144.348145,-143.432617
196,980000,1280000,196,-1693,7230,4798,-773,2330,-2346,-0.206665039,0.882568359,0.585693359,-47.1801758,142.211914,-143.188477
197,985008,1285008,197,-1801,7139,4834,-799,2298,-2336,-0.219848633,0.871459961,0.590087891,-48.7670898,140.258789,-142.578125
198,990000,1290000,198,-1928,7100,4949,-830,2280,-2333,-0.235351562,0.866699219,0.604125977,-50.6591797,139.160156,-142.39502
199,995008,1295008,199,-1999,7057,5031,-856,2271,-2337,-0.244018555,0.861450195,0.614135742,-52.2460938,138.61084,-142.63916
200,1000000,1300000,200,-2028,6993,5070,-877,2258,-2344,-0.247558594,0.853637695,0.618896484,-53.527832,137.817383,-143.066406
201,1005008,1305008,201,-2109,7083,5166,-907,2254,-2362,-0.257446289,0.864624023,0.630615234,-55.3588867,137.573242,-144.165039
202,1010000,1310000,202,-2227,7354,5364,-953,2265,-2398,-0.271850586,0.897705078,0.654785156,-58.1665039,138.244629,-146.362305
203,1015008,1315008,203,-2304,7598,5623,-1020,2278,-2441,-0.28125,0.927490234,0.686401367,-62.2558594,139.038086,-148.986816
204,1020000,1320000,204,-2372,7672,5776,-1099,2286,-2474,-0.289550781,0.936523438,0.705078125,-67.0776367,139.526367,-151.000977
205,1025008,1325008,205,-2413,7567,5661,-1165,2295,-2494,-0.294555664,0.923706055,0.691040039,-71.105957,140.075684,-152.22168
206,1030000,1330000,206,-2405,7300,5282,-1204,2302,-2497,-0.293579102,0.891113281,0.644775391,-73.4863281,140.50293,-152.404785
207,1035008,1335008,207,-2421,6951,4802,-1210,2316,-2481,-0.295532227,0.848510742,0.586181641,-73.8525391,141.357422,-151.428223
208,1040000,1340000,208,-2464,6592,4348,-1174,2348,-2455,-0.30078125,0.8046875,0.530761719,-71.6552734,143.310547,-149.841309
209,1045008,1345008,209,-2475,6133,3880,-1089,2394,-2422,-0.302124023,0.748657227,0.473632812,-66.4672852,146.118164,-147.827148
210,1050000,1350000,210,-2470,5540,3326,-956,2440,-2377,-0.301513672,0.676269531,0.406005859,-58.3496094,148.925781,-145.080566
211,1055008,1355008,211,-2563,4980,2743,-779,2494,-2329,-0.312866211,0.607910156,0.334838867,-47.5463867,152.22168,-142.150879
212,1060000,1360000,212,-2782,4596,2299,-572,2557,-2297,-0.339599609,0.561035156,0.280639648,-34.9121094,156.066895,-140.197754
213,1065008,1365008,213,-3009,4366,2086,-356,2624,-2279,-0.36730957,0.532958984,0.254638672,-21.7285156,160.15625,-139.099121
214,1070000,1370000,214,-3199,4218,2009,-154,2683,-2258,-0.39050293,0.514892578,0.245239258,-9.39941406,163.757324,-137.817383
215,1075008,1375008,215,-3406,4150,2001,22,2727,-2238,-0.415771484,0.506591797,0.244262695,1.34277344,166.442871,-136.59668
216,1080000,1380000,216,-3663,4150,2024,169,2760,-2230,-0.447143555,0.506591797,0.247070312,10.3149414,168.457031,-136.108398
217,1085008,1385008,217,-3903,4156,2046,284,2775,-2228,-0.47644043,0.507324219,0.249755859,17.3339844,169.372559,-135.986328
218,1090000,1390000,218,-4114,4134,2106,362,2773,-2227,-0.502197266,0.504638672,0.257080078,22.0947266,169.250488,-135.925293
219,1095008,1395008,219,-4302,4093,2199,399,2751,-2224,-0.525146484,0.499633789,0.268432617,24.3530273,167.907715,-135.742188
220,1100000,1400000,220,-4505,4065,2368,388,2722,-2221,-0.549926758,0.49621582,0.2890625,23.6816406,166.137695,-135.559082
221,1105008,1405008,221,-4620,3994,2462,343,2677,-2211,-0.563964844,0.487548828,0.300537109,20.9350586,163.391113,-134.94873
222,1110000,1410000,222,-4627,3900,2538,283,2608,-2182,-0.564819336,0.476074219,0.309814453,17.2729492,159.179688,-133.178711
223,1115008,1415008,223,-4725,3884,2726,215,2555,-2143,-0.576782227,0.474121094,0.332763672,13.1225586,155.944824,-130.79834
224,1120000,1420000,224,-4875,3866,2805,132,2513,-2108,-0.595092773,0.471923828,0.342407227,8.05664062,153.381348,-128.662109
225,1125008,1425008,225,-4954,3693,2659,36,2461,-2073,-0.604736328,0.450805664,0.324584961,2.19726562,150.20752,-126.525879
226,1130000,1430000,226,-4976,3408,2407,-50,2396,-2032,-0.607421875,0.416015625,0.293823242,-3.05175781,146.240234,-124.023438
227,1135008,1435008,227,-5021,3187,2251,-121,2329,-1994,-0.612915039,0.389038086,0.274780273,-7.38525391,142.150879,-121.704102
228,1140000,1440000,228,-5045,3072,2167,-182,2281,-1967,-0.615844727,0.375,0.264526367,-11.1083984,139.221191,-120.056152
229,1145008,1445008,229,-5000,3082,2074,-221,2248,-1941,-0.610351562,0.376220703,0.253173828,-13.4887695,137.207031,-118.469238
230,1150000,1450000,230,-4942,3099,1979,-243,2227,-1916,-0.603271484,0.378295898,0.241577148,-14.831543,135.925293,-116.943359
231,1155008,1455008,231,-4889,3010,1784,-270,2189,-1889,-0.596801758,0.367431641,0.217773438,-16.4794922,133.605957,-115.29541
232,1160000,1460000,232,-4890,2925,1486,-295,2141,-1864,-0.596923828,0.357055664,0.181396484,-18.0053711,130.67627,-113.769531
233,1165008,1465008,233,-4906,2788,1176,-302,2105,-1847,-0.598876953,0.340332031,0.143554688,-18.4326172,128.479004,-112.731934
234,1170000,1470000,234,-4898,2576,900,-293,2069,-1821,-0.597900391,0.314453125,0.109863281,-17.8833008,126.281738,-111.14502
235,1175008,1475008,235,-4901,2442,610,-274,2044,-1791,-0.598266602,0.298095703,0.0744628906,-16.7236328,124.755859,-109.313965
236,1180000,1480000,236,-4883,2320,273,-234,2030,-1764,-0.596069336,0.283203125,0.0333251953,-14.2822266,123.901367,-107.666016
237,1185008,1485008,237,-4863,2142,62,-193,2008,-1728,-0.59362793,0.261474609,0.00756835938,-11.7797852,122.558594,-105.46875
238,1190000,1490000,238,-4922,2082,-26,-162,1988,-1686,-0.600830078,0.254150391,-0.00317382812,-9.88769531,121.337891,-102.905273
239,1195008,1495008,239,-5059,2154,-4,-128,1980,-1651,-0.617553711,0.262939453,-0.00048828125,-7.8125,120.849609,-100.769043
240,1200000,1500000,240,-5186,2250,126,-102,1966,-1617,-0.633056641,0.274658203,0.0153808594,-6.22558594,119.995117,-98.6938477
241,1205008,1505008,241,-5326,2344,203,-93,1945,-1582,-0.650146484,0.286132812,0.0247802734,-5.67626953,118.713379,-96.5576172
242,1210000,1510000,242,-5458,2315,139,-92,1916,-1552,-0.666259766,0.282592773,0.0169677734,-5.61523438,116.943359,-94.7265625
243,1215008,1515008,243,-5538,2160,34,-108,1865,-1514,-0.676025391,0.263671875,0.00415039062,-6.59179688,113.830566,-92.4072266
244,1220000,1520000,244,-5664,2041,30,-137,1813,-1473,-0.69140625,0.249145508,0.00366210938,-8.36181641,110.656738,-89.9047852
245,1225008,1525008,245,-5843,2002,72,-146,1790,-1447,-0.713256836,0.244384766,0.0087890625,-8.91113281,109.25293,-88.3178711
246,1230000,1530000,246,-5984,1969,98,-117,1788,-1429,-0.73046875,0.240356445,0.0119628906,-7.14111328,109.130859,-87.2192383
247,1235008,1535008,247,-6122,1911,102,-77,1782,-1411,-0.747314453,0.233276367,0.0124511719,-4.69970703,108.764648,-86.1206055
248,1240000,1540000,248,-6241,1881,113,-56,1758,-1386,-0.76184082,0.229614258,0.0137939453,-3.41796875,107.299805,-84.5947266
249,1245008,1545008,249,-6317,1901,96,-47,1728,-1353,-0.771118164,0.232055664,0.01171875,-2.86865234,105.46875,-82.5805664
250,1250000,1550000,250,-6341,1868,-31,-38,1697,-1314,-0.774047852,0.228027344,-0.00378417969,-2.31933594,103.57666,-80.2001953
251,1255008,1555008,251,-6322,1776,-171,-39,1649,-1264,-0.771728516,0.216796875,-0.0208740234,-2.38037109,100.646973,-77.1484375
252,1260000,1560000,252,-6378,1737,-269,-64,1601,-1214,-0.778564453,0.212036133,-0.0328369141,-3.90625,97.7172852,-74.0966797
253,1265008,1565008,253,-6442,1767,-355,-108,1551,-1180,-0.786376953,0.215698242,-0.0433349609,-6.59179688,94.6655273,-72.0214844
254,1270000,1570000,254,-6445,1828,-353,-161,1493,-1157,-0.786743164,0.223144531,-0.0430908203,-9.82666016,91.1254883,-70.6176758
255,1275008,1575008,255,-6448,1882,-306,-207,1450,-1137,-0.787109375,0.229736328,-0.0373535156,-12.6342773,88.5009766,-69.3969727
256,1280000,1580000,256,-6461,1848,-423,-235,1417,-1121,-0.788696289,0.225585938,-0.0516357422,-14.3432617,86.4868164,-68.4204102
257,1285008,1585008,257,-6479,1677,-729,-256,1381,-1107,-0.790893555,0.204711914,-0.0889892578,-15.625,84.2895508,-67.565918
258,1290000,1590000,258,-6454,1438,-1130,-281,1325,-1082,-0.787841797,0.175537109,-0.137939453,-17.1508789,80.871582,-66.0400391
259,1295008,1595008,259,-6417,1236,-1482,-298,1268,-1052,-0.783325195,0.150878906,-0.180908203,-18.1884766,77.3925781,-64.2089844
260,1300000,1600000,260,-6421,1100,-1696,-298,1231,-1025,-0.783813477,0.134277344,-0.20703125,-18.1884766,75.1342773,-62.5610352
261,1305008,1605008,261,-6383,971,-1882,-275,1193,-988,-0.779174805,0.118530273,-0.229736328,-16.784668,72.8149414,-60.3027344
262,1310000,1610000,262,-6360,867,-2023,-235,1148,-939,-0.776367188,0.105834961,-0.246948242,-14.3432617,70.0683594,-57.3120117
263,1315008,1615008,263,-6490,843,-2018,-193,1110,-890,-0.792236328,0.102905273,-0.246337891,-11.7797852,67.7490234,-54.3212891
264,1320000,1620000,264,-6662,821,-1980,-154,1070,-843,-0.813232422,0.100219727,-0.241699219,-9.39941406,65.3076172,-51.4526367
265,1325008,1625008,265,-6763,771,-1937,-110,1009,-787,-0.825561523,0.0941162109,-0.236450195,-6.71386719,61.5844727,-48.034668
266,1330000,1630000,266,-6884,754,-1832,-69,945,-727,-0.840332031,0.0920410156,-0.223632812,-4.21142578,57.6782227,-44.3725586
267,1335008,1635008,267,-7032,776,-1755,-36,893,-673,-0.858398438,0.0947265625,-0.214233398,-2.19726562,54.5043945,-41.0766602
268,1340000,1640000,268,-7130,803,-1734,-13,840,-626,-0.870361328,0.0980224609,-0.211669922,-0.793457031,51.2695312,-38.2080078
269,1345008,1645008,269,-7179,855,-1701,-9,775,-579,-0.876342773,0.104370117,-0.207641602,-0.549316406,47.3022461,-35.3393555
270,1350000,1650000,270,-7192,911,-1671,-25,708,-536,-0.877929688,0.111206055,-0.203979492,-1.52587891,43.2128906,-32.7148438
271,1355008,1655008,271,-7176,917,-1666,-48,643,-491,-0.875976562,0.111938477,-0.203369141,-2.9296875,39.2456055,-29.9682617
272,1360000,1660000,272,-7160,896,-1683,-78,572,-446,-0.874023438,0.109375,-0.205444336,-4.76074219,34.9121094,-27.2216797
273,1365008,1665008,273,-7157,842,-1743,-111,498,-405,-0.873657227,0.102783203,-0.212768555,-6.77490234,30.3955078,-24.7192383
274,1370000,1670000,274,-7132,737,-1813,-135,425,-364,-0.870605469,0.0899658203,-0.221313477,-8.23974609,25.9399414,-22.2167969
275,1375008,1675008,275,-7086,604,-1899,-144,358,-321,-0.864990234,0.0737304688,-0.231811523,-8.7890625,21.8505859,-19.5922852
276,1380000,1680000,276,-7020,464,-2037,-137,297,-277,-0.856933594,0.056640625,-0.248657227,-8.36181641,18.1274414,-16.9067383
277,1385008,1685008,277,-6945,327,-2216,-115,243,-230,-0.84777832,0.0399169922,-0.270507812,-7.01904297,14.831543,-14.0380859
278,1390000,1690000,278,-6869,220,-2457,-81,189,-183,-0.838500977,0.0268554688,-0.299926758,-4.94384766,11.5356445,-11.1694336
279,1395008,1695008,279,-6767,129,-2759,-35,131,-137,-0.826049805,0.0157470703,-0.336791992,-2.13623047,7.99560547,-8.36181641
280,1400000,1700000,280,-6617,-1,-3085,17,70,-84,-0.807739258,-0.000122070312,-0.376586914,1.03759766,4.27246094,-5.12695312
281,1405008,1705008,281,-6474,-156,-3388,69,1,-23,-0.790283203,-0.0190429688,-0.413574219,4.21142578,0.0610351562,-1.40380859
282,1410000,1710000,282,-6401,-290,-3558,128,-68,39,-0.78137207,-0.0354003906,-0.434326172,7.8125,-4.15039062,2.38037109
283,1415008,1715008,283,-6367,-448,-3572,192,-132,105,-0.77722168,-0.0546875,-0.436035156,11.71875,-8.05664062,6.40869141
284,1420000,1720000,284,-6372,-589,-3506,260,-202,183,-0.777832031,-0.0718994141,-0.427978516,15.8691406,-12.3291016,11.1694336
285,1425008,1725008,285,-6434,-609,-3325,324,-281,270,-0.785400391,-0.0743408203,-0.405883789,19.7753906,-17.1508789,16.4794922
286,1430000,1730000,286,-6516,-491,-3019,374,-364,358,-0.795410156,-0.0599365234,-0.368530273,22.8271484,-22.2167969,21.8505859
287,1435008,1735008,287,-6598,-294,-2660,404,-451,440,-0.805419922,-0.0358886719,-0.324707031,24.6582031,-27.5268555,26.8554688
288,1440000,1740000,288,-6700,-120,-2308,406,-545,517,-0.817871094,-0.0146484375,-0.281738281,24.7802734,-33.2641602,31.5551758
289,1445008,1745008,289,-6799,-31,-2050,378,-648,593,-0.829956055,-0.00378417969,-0.250244141,23.0712891,-39.5507812,36.1938477
290,1450000,1750000,290,-6857,38,-1894,326,-757,662,-0.837036133,0.00463867188,-0.231201172,19.8974609,-46.2036133,40.4052734
291,1455008,1755008,291,-6880,146,-1791,259,-864,719,-0.83984375,0.0178222656,-0.21862793,15.8081055,-52.734375,43.8842773
292,1460000,1760000,292,-6895,255,-1729,174,-969,767,-0.841674805,0.0311279297,-0.21105957,10.6201172,-59.1430664,46.8139648
293,1465008,1765008,293,-6882,311,-1762,80,-1074,808,-0.840087891,0.0379638672,-0.215087891,4.8828125,-65.5517578,49.3164062
294,1470000,1770000,294,-6806,257,-1932,-6,-1181,853,-0.830810547,0.0313720703,-0.235839844,-0.366210938,-72.0825195,52.0629883
295,1475008,1775008,295,-6690,95,-2181,-71,-1288,909,-0.816650391,0.0115966797,-0.266235352,-4.33349609,-78.6132812,55.480957
296,1480000,1780000,296,-6569,-98,-2492,-104,-1392,969,-0.801879883,-0.0119628906,-0.304199219,-6.34765625,-84.9609375,59.1430664
297,1485008,1785008,297,-6410,-322,-2863,-96,-1491,1034,-0.782470703,-0.0393066406,-0.349487305,-5.859375,-91.003418,63.1103516
298,1490000,1790000,298,-6207,-597,-3226,-46,-1580,1105,-0.75769043,-0.0728759766,-0.393798828,-2.80761719,-96.4355469,67.4438477
299,1495008,1795008,299,-6019,-878,-3582,46,-1658,1182,-0.734741211,-0.107177734,-0.437255859,2.80761719,-101.196289,72.1435547
300,1500000,1800000,300,-5847,-1144,-3896,188,-1734,1263,-0.713745117,-0.139648438,-0.475585938,11.4746094,-105.834961,77.0874023
301,1505008,1805008,301,-5675,-1390,-4054,363,-1790,1350,-0.692749023,-0.169677734,-0.494873047,22.1557617,-109.25293,82.3974609
302,1510000,1810000,302,-5513,-1562,-4160,550,-1826,1448,-0.672973633,-0.190673828,-0.5078125,33.5693359,-111.450195,88.3789062
303,1515008,1815008,303,-5376,-1645,-4095,742,-1860,1554,-0.65625,-0.200805664,-0.49987793,45.2880859,-113.525391,94.8486328
304,1520000,1820000,304,-5326,-1511,-3620,896,-1886,1662,-0.650146484,-0.184448242,-0.441894531,54.6875,-115.112305,101.44043
305,1525008,1825008,305,-5409,-892,-2757,972,-1899,1750,-0.66027832,-0.108886719,-0.336547852,59.3261719,-115.905762,106.811523
306,1530000,1830000,306,-5567,142,-1645,993,-1900,1799,-0.67956543,0.0173339844,-0.200805664,60.6079102,-115.966797,109.802246
307,1535008,1835008,307,-5709,1175,-580,975,-1917,1824,-0.696899414,0.143432617,-0.0708007812,59.5092773,-117.004395,111.328125
308,1540000,1840000,308,-5925,1959,209,897,-1979,1855,-0.723266602,0.239135742,0.0255126953,54.7485352,-120.788574,113.220215
309,1545008,1845008,309,-6255,2533,677,734,-2071,1885,-0.763549805,0.309204102,0.0826416016,44.7998047,-126.403809,115.05127
310,1550000,1850000,310,-6550,2936,848,496,-2190,1910,-0.799560547,0.358398438,0.103515625,30.2734375,-133.666992,116.577148
311,1555008,1855008,311,-6767,3191,891,243,-2330,1934,-0.826049805,0.389526367,0.108764648,14.831543,-142.211914,118.041992
312,1560000,1860000,312,-6889,3288,914,25,-2451,1956,-0.840942383,0.401367188,0.111572266,1.52587891,-149.597168,119.384766
313,1565008,1865008,313,-6831,3180,778,-121,-2558,1982,-0.833862305,0.388183594,0.0949707031,-7.38525391,-156.12793,120.97168
314,1570000,1870000,314,-6639,2906,437,-185,-2651,2027,-0.810424805,0.354736328,0.0533447266,-11.2915039,-161.804199,123.718262
315,1575008,1875008,315,-6397,2562,-111,-189,-2717,2073,-0.780883789,0.312744141,-0.0135498047,-11.5356445,-165.83252,126.525879
316,1580000,1880000,316,-6048,2133,-757,-134,-2764,2123,-0.73828125,0.260375977,-0.0924072266,-8.17871094,-168.701172,129.577637
317,1585008,1885008,317,-5598,1656,-1431,-17,-2806,2196,-0.683349609,0.202148438,-0.174682617,-1.03759766,-171.264648,134.033203
318,1590000,1890000,318,-5166,1304,-1970,170,-2835,2272,-0.630615234,0.159179688,-0.240478516,10.3759766,-173.034668,138.671875
319,1595008,1895008,319,-4745,1139,-2197,401,-2822,2325,-0.579223633,0.139038086,-0.268188477,24.4750977,-172.241211,141.906738
320,1600000,1900000,320,-4334,1207,-2135,630,-2770,2344,-0.529052734,0.147338867,-0.260620117,38.4521484,-169.067383,143.066406
321,1605008,1905008,321,-3990,1589,-1678,834,-2682,2330,-0.487060547,0.193969727,-0.204833984,50.9033203,-163.696289,142.211914
322,1610000,1910000,322,-3718,2217,-987,992,-2558,2292,-0.453857422,0.270629883,-0.120483398,60.546875,-156.12793,139.892578
323,1615008,1915008,323,-3557,2908,-243,1101,-2438,2253,-0.434204102,0.354980469,-0.0296630859,67.199707,-148.803711,137.512207
324,1620000,1920000,324,-3642,3630,712,1167,-2354,2231,-0.444580078,0.443115234,0.0869140625,71.2280273,-143.676758,136.169434
325,1625008,1925008,325,-3914,4360,1765,1175,-2299,2218,-0.477783203,0.532226562,0.215454102,71.7163086,-140.319824,135.375977
326,1630000,1930000,326,-4249,4947,2659,1137,-2274,2217,-0.518676758,0.603881836,0.324584961,69.3969727,-138.793945,135.314941
327,1635008,1935008,327,-4495,5224,3255,1082,-2296,2242,-0.548706055,0.637695312,0.397338867,66.0400391,-140.136719,136.84082
328,1640000,1940000,328,-4670,5239,3569,1027,-2358,2294,-0.570068359,0.639526367,0.435668945,62.6831055,-143.920898,140.014648
329,1645008,1945008,329,-4842,5176,3758,978,-2430,2360,-0.591064453,0.631835938,0.458740234,59.6923828,-148.31543,144.042969
330,1650000,1950000,330,-4876,5148,3944,924,-2486,2425,-0.595214844,0.628417969,0.481445312,56.3964844,-151.733398,148.010254
331,1655008,1955008,331,-4920,5301,4178,863,-2528,2491,-0.600585938,0.647094727,0.510009766,52.6733398,-154.296875,152.038574
332,1660000,1960000,332,-4879,5591,4320,811,-2563,2553,-0.595581055,0.682495117,0.52734375,49.4995117,-156.433105,155.822754
333,1665008,1965008,333,-4719,5842,4256,797,-2606,2625,-0.576049805,0.713134766,0.51953125,48.6450195,-159.057617,160.217285
334,1670000,1970000,334,-4492,5868,3908,824,-2667,2716,-0.548339844,0.716308594,0.477050781,50.2929688,-162.780762,165.771484
335,1675008,1975008,335,-4147,5574,3239,862,-2741,2835,-0.506225586,0.680419922,0.395385742,52.6123047,-167.297363,173.034668
336,1680000,1980000,336,-3823,5077,2384,911,-2809,2962,-0.466674805,0.619750977,0.291015625,55.6030273,-171.447754,180.786133
337,1685008,1985008,337,-3531,4564,1714,987,-2813,3058,-0.431030273,0.557128906,0.209228516,60.2416992,-171.691895,186.645508
338,1690000,1990000,338,-3158,4230,1385,1092,-2765,3109,-0.385498047,0.516357422,0.169067383,66.6503906,-168.762207,189.758301
339,1695008,1995008,339,-2618,4231,1335,1240,-2689,3090,-0.319580078,0.516479492,0.162963867,75.6835938,-164.123535,188.598633
340,1700000,2000000,340,-1951,4546,1619,1439,-2569,2997,-0.23815918,0.554931641,0.197631836,87.8295898,-156.799316,182.922363
341,1705008,2005008,341,-1357,5074,2020,1673,-2410,2867,-0.165649414,0.619384766,0.246582031,102.111816,-147.094727,174.987793
342,1710000,2010000,342,-1037,5758,2438,1904,-2255,2737,-0.126586914,0.702880859,0.297607422,116.210938,-137.634277,167.053223
343,1715008,2015008,343,-1026,6556,3009,2047,-2116,2629,-0.125244141,0.800292969,0.36730957,124.938965,-129.150391,160.461426
344,1720000,2020000,344,-1273,7462,3747,2031,-1984,2548,-0.155395508,0.910888672,0.457397461,123.962402,-121.09375,155.517578
345,1725008,2025008,345,-1613,8601,4620,1858,-1883,2481,-0.196899414,1.04992676,0.563964844,113.40332,-114.929199,151.428223
346,1730000,2030000,346,-1801,9951,5469,1576,-1834,2432,-0.219848633,1.21472168,0.667602539,96.1914062,-111.938477,148.4375
347,1735008,2035008,347,-1843,11237,6015,1268,-1857,2404,-0.224975586,1.3717041,0.73425293,77.3925781,-113.342285,146.728516
348,1740000,2040000,348,-1866,12070,6231,967,-1950,2417,-0.227783203,1.47338867,0.760620117,59.0209961,-119.018555,147.521973
349,1745008,2045008,349,-1924,12018,6317,649,-2067,2464,-0.234863281,1.46704102,0.771118164,39.6118164,-126.159668,150.390625
350,1750000,2050000,350,-2040,11178,6359,294,-2161,2512,-0.249023438,1.36450195,0.776245117,17.9443359,-131.896973,153.320312
351,1755008,2055008,351,-2101,10150,6181,-21,-2225,2545,-0.256469727,1.23901367,0.754516602,-1.28173828,-135.803223,155.334473
352,1760000,2060000,352,-1993,9304,5747,-180,-2273,2563,-0.243286133,1.13574219,0.701538086,-10.9863281,-138.73291,156.433105
353,1765008,2065008,353,-1702,8639,5237,-186,-2322,2584,-0.207763672,1.05456543,0.639282227,-11.3525391,-141.723633,157.714844
354,1770000,2070000,354,-1327,8049,4629,-116,-2360,2615,-0.161987305,0.982543945,0.565063477,-7.08007812,-144.042969,159.606934
355,1775008,2075008,355,-939,7442,3876,-12,-2379,2647,-0.114624023,0.908447266,0.473144531,-0.732421875,-145.202637,161.560059
356,1780000,2080000,356,-513,6753,3123,132,-2382,2668,-0.0626220703,0.82434082,0.381225586,8.05664062,-145.385742,162.841797
357,1785008,2085008,357,-38,6020,2465,333,-2358,2665,-0.00463867188,0.734863281,0.30090332,20.324707,-143.920898,162.658691
358,1790000,2090000,358,417,5378,1869,606,-2294,2627,0.0509033203,0.656494141,0.228149414,36.9873047,-140.014648,160.339355
359,1795008,2095008,359,800,4951,1403,953,-2185,2555,0.09765625,0.604370117,0.171264648,58.1665039,-133.361816,155.944824
360,1800000,2100000,360,1077,4891,1307,1335,-2029,2457,0.131469727,0.597045898,0.159545898,81.4819336,-123.840332,149.963379
361,1805008,2105008,361,1181,5418,1722,1677,-1812,2331,0.144165039,0.661376953,0.210205078,102.355957,-110.595703,142.272949
362,1810000,2110000,362,1117,6688,2651,1909,-1558,2170,0.136352539,0.81640625,0.323608398,116.516113,-95.0927734,132.446289
363,1815008,2115008,363,987,8472,3979,1971,-1332,2012,0.120483398,1.03417969,0.485717773,120.300293,-81.2988281,122.802734
364,1820000,2120000,364,922,10254,5320,1833,-1205,1921,0.112548828,1.25170898,0.649414062,111.877441,-73.5473633,117.248535
365,1825008,2125008,365,864,11717,6280,1532,-1205,1925,0.10546875,1.43029785,0.766601562,93.5058594,-73.5473633,117.492676
366,1830000,2130000,366,768,12692,6824,1142,-1301,1987,0.09375,1.54931641,0.833007812,69.7021484,-79.4067383,121.276855
367,1835008,2135008,367,734,12977,7127,702,-1436,2056,0.0895996094,1.58410645,0.869995117,42.8466797,-87.6464844,125.488281
368,1840000,2140000,368,718,12631,7183,219,-1565,2106,0.0876464844,1.54187012,0.876831055,13.3666992,-95.5200195,128.540039
369,1845008,2145008,369,693,11935,6913,-250,-1669,2132,0.0845947266,1.45690918,0.84387207,-15.2587891,-101.867676,130.126953
370,1850000,2150000,370,718,11015,6414,-616,-1750,2147,0.0876464844,1.34460449,0.782958984,-37.5976562,-106.811523,131.04248
371,1855008,2155008,371,802,9916,5775,-824,-1819,2159,0.0979003906,1.21044922,0.704956055,-50.2929688,-111.022949,131.774902
372,1860000,2160000,372,910,8805,4993,-867,-1871,2159,0.111083984,1.0748291,0.60949707,-52.9174805,-114.196777,131.774902
373,1865008,2165008,373,996,7854,4167,-771,-1895,2139,0.121582031,0.958740234,0.508666992,-47.0581055,-115.661621,130.554199
374,1870000,2170000,374,1109,7097,3402,-575,-1890,2112,0.135375977,0.866333008,0.415283203,-35.0952148,-115.356445,128.90625
375,1875008,2175008,375,1287,6502,2746,-311,-1866,2099,0.157104492,0.793701172,0.335205078,-18.9819336,-113.891602,128.112793
376,1880000,2180000,376,1491,6056,2252,-4,-1825,2099,0.182006836,0.739257812,0.274902344,-0.244140625,-111.38916,128.112793
377,1885008,2185008,377,1687,5782,1953,320,-1763,2094,0.205932617,0.705810547,0.23840332,19.53125,-107.60498,127.807617
378,1890000,2190000,378,1859,5804,1889,642,-1670,2063,0.226928711,0.708496094,0.23059082,39.1845703,-101.928711,125.915527
379,1895008,2195008,379,2031,6141,2080,935,-1550,2008,0.247924805,0.749633789,0.25390625,57.0678711,-94.6044922,122.558594
380,1900000,2200000,380,2220,6739,2528,1164,-1420,1948,0.270996094,0.822631836,0.30859375,71.0449219,-86.6699219,118.896484
381,1905008,2205008,381,2367,7492,3142,1304,-1298,1897,0.28894043,0.914550781,0.383544922,79.5898438,-79.2236328,115.783691
382,1910000,2210000,382,2438,8243,3782,1346,-1213,1863,0.297607422,1.00622559,0.461669922,82.1533203,-74.0356445,113.708496
383,1915008,2215008,383,2435,8939,4348,1284,-1178,1856,0.297241211,1.09118652,0.530761719,78.3691406,-71.8994141,113.28125
384,1920000,2220000,384,2396,9575,4793,1126,-1181,1867,0.292480469,1.16882324,0.585083008,68.7255859,-72.0825195,113.952637
385,1925008,2225008,385,2397,10121,5143,896,-1206,1884,0.292602539,1.23547363,0.627807617,54.6875,-73.6083984,114.990234
386,1930000,2230000,386,2432,10499,5347,629,-1246,1900,0.296875,1.28161621,0.652709961,38.3911133,-76.0498047,115.966797
387,1935008,2235008,387,2479,10619,5382,358,-1298,1913,0.302612305,1.29626465,0.656982422,21.8505859,-79.2236328,116.760254
388,1940000,2240000,388,2517,10462,5269,102,-1354,1923,0.307250977,1.27709961,0.643188477,6.22558594,-82.6416016,117.370605
389,1945008,2245008,389,2529,10169,4964,-119,-1408,1923,0.30871582,1.24133301,0.605957031,-7.26318359,-85.9375,117.370605
390,1950000,2250000,390,2576,9834,4561,-284,-1447,1908,0.314453125,1.20043945,0.556762695,-17.3339844,-88.3178711,116.455078
391,1955008,2255008,391,2690,9405,4167,-387,-1468,1888,0.328369141,1.14807129,0.508666992,-23.6206055,-89.5996094,115.234375
392,1960000,2260000,392,2811,8889,3758,-424,-1474,1870,0.343139648,1.08508301,0.458740234,-25.8789062,-89.9658203,114.135742
393,1965008,2265008,393,2921,8396,3347,-390,-1467,1849,0.356567383,1.02490234,0.408569336,-23.8037109,-89.5385742,112.854004
394,1970000,2270000,394,3037,8020,2971,-295,-1442,1820,0.370727539,0.979003906,0.362670898,-18.0053711,-88.0126953,111.083984
395,1975008,2275008,395,3164,7739,2651,-160,-1403,1786,0.386230469,0.944702148,0.323608398,-9.765625,-85.6323242,109.008789
396,1980000,2280000,396,3293,7499,2438,-2,-1353,1751,0.401977539,0.915405273,0.297607422,-0.122070312,-82.5805664,106.872559
397,1985008,2285008,397,3421,7324,2323,166,-1287,1710,0.417602539,0.894042969,0.283569336,10.1318359,-78.5522461,104.370117
398,1990000,2290000,398,3585,7250,2300,335,-1212,1655,0.43762207,0.885009766,0.280761719,20.4467773,-73.9746094,101.013184
399,1995008,2295008,399,3760,7281,2420,496,-1126,1589,0.458984375,0.888793945,0.295410156,30.2734375,-68.7255859,96.9848633
400,2000000,2300000,400,3863,7427,2653,634,-1030,1521,0.471557617,0.906616211,0.323852539,38.6962891,-62.8662109,92.8344727
401,2005008,2305008,401,3859,7652,2916,745,-939,1457,0.471069336,0.934082031,0.355957031,45.4711914,-57.3120117,88.9282227
402,2010000,2310000,402,3786,7923,3192,824,-867,1406,0.462158203,0.967163086,0.389648438,50.2929688,-52.9174805,85.8154297
403,2015008,2315008,403,3664,8223,3448,858,-813,1371,0.447265625,1.00378418,0.420898438,52.3681641,-49.621582,83.6791992
404,2020000,2320000,404,3553,8489,3611,836,-785,1347,0.43371582,1.03625488,0.440795898,51.0253906,-47.9125977,82.2143555
405,2025008,2325008,405,3507,8682,3675,768,-783,1339,0.428100586,1.05981445,0.448608398,46.875,-47.7905273,81.7260742
406,2030000,2330000,406,3499,8788,3675,667,-793,1347,0.427124023,1.07275391,0.448608398,40.7104492,-48.4008789,82.2143555
407,2035008,2335008,407,3522,8793,3607,548,-809,1355,0.429931641,1.07336426,0.440307617,33.4472656,-49.3774414,82.7026367
408,2040000,2340000,408,3552,8701,3492,431,-824,1360,0.43359375,1.06213379,0.426269531,26.3061523,-50.2929688,83.0078125
409,2045008,2345008,409,3542,8557,3346,324,-837,1363,0.432373047,1.04455566,0.408447266,19.7753906,-51.0864258,83.190918
410,2050000,2350000,410,3526,8431,3169,234,-854,1357,0.430419922,1.0291748,0.38684082,14.2822266,-52.1240234,82.824707
411,2055008,2355008,411,3561,8332,3002,155,-870,1348,0.434692383,1.01708984,0.366455078,9.46044922,-53.1005859,82.2753906
412,2060000,2360000,412,3622,8226,2856,82,-881,1340,0.442138672,1.00415039,0.348632812,5.00488281,-53.7719727,81.7871094
413,2065008,2365008,413,3653,8108,2729,22,-886,1328,0.445922852,0.989746094,0.333129883,1.34277344,-54.0771484,81.0546875
414,2070000,2370000,414,3647,8013,2623,-16,-884,1310,0.44519043,0.978149414,0.32019043,-0.9765625,-53.9550781,79.9560547
415,2075008,2375008,415,3670,7943,2588,-37,-880,1283,0.447998047,0.969604492,0.315917969,-2.25830078,-53.7109375,78.3081055
416,2080000,2380000,416,3712,7868,2631,-49,-870,1255,0.453125,0.960449219,0.321166992,-2.99072266,-53.1005859,76.5991211
417,2085008,2385008,417,3724,7803,2718,-55,-853,1227,0.454589844,0.952514648,0.331787109,-3.35693359,-52.0629883,74.8901367
418,2090000,2390000,418,3723,7767,2802,-57,-834,1190,0.454467773,0.948120117,0.342041016,-3.47900391,-50.9033203,72.6318359
419,2095008,2395008,419,3734,7754,2807,-53,-817,1146,0.455810547,0.946533203,0.342651367,-3.23486328,-49.8657227,69.9462891
420,2100000,2400000,420,3785,7795,2766,-42,-801,1102,0.462036133,0.951538086,0.337646484,-2.56347656,-48.8891602,67.2607422
421,2105008,2405008,421,3869,7872,2728,-31,-778,1057,0.472290039,0.9609375,0.333007812,-1.89208984,-47.4853516,64.5141602
422,2110000,2410000,422,3960,7944,2678,-23,-749,1016,0.483398438,0.969726562,0.326904297,-1.40380859,-45.715332,62.0117188
423,2115008,2415008,423,4045,7983,2651,-19,-717,979,0.493774414,0.974487305,0.323608398,-1.15966797,-43.762207,59.753418
424,2120000,2420000,424,4072,7953,2633,-12,-681,944,0.497070312,0.970825195,0.321411133,-0.732421875,-41.5649414,57.6171875
425,2125008,2425008,425,4020,7897,2574,5,-647,906,0.490722656,0.963989258,0.314208984,0.305175781,-39.4897461,55.2978516
426,2130000,2430000,426,4003,7878,2525,30,-617,860,0.488647461,0.961669922,0.308227539,1.83105469,-37.6586914,52.4902344
427,2135008,2435008,427,4020,7878,2493,55,-583,811,0.490722656,0.961669922,0.304321289,3.35693359,-35.5834961,49.4995117
428,2140000,2440000,428,4021,7921,2454,76,-546,763,0.490844727,0.966918945,0.299560547,4.63867188,-33.3251953,46.5698242
429,2145008,2445008,429,4065,8000,2444,92,-509,712,0.49621582,0.9765625,0.298339844,5.61523438,-31.0668945,43.4570312
430,2150000,2450000,430,4144,8032,2451,101,-465,662,0.505859375,0.98046875,0.299194336,6.16455078,-28.3813477,40.4052734
431,2155008,2455008,431,4199,8002,2483,109,-416,616,0.512573242,0.976806641,0.303100586,6.65283203,-25.390625,37.5976562
432,2160000,2460000,432,4188,7960,2550,120,-362,565,0.511230469,0.971679688,0.311279297,7.32421875,-22.0947266,34.4848633
433,2165008,2465008,433,4132,7963,2591,136,-314,507,0.504394531,0.972045898,0.31628418,8.30078125,-19.1650391,30.9448242
434,2170000,2470000,434,4074,8014,2613,152,-270,448,0.497314453,0.978271484,0.318969727,9.27734375,-16.4794922,27.34375
435,2175008,2475008,435,4017,8098,2630,158,-229,392,0.490356445,0.988525391,0.321044922,9.64355469,-13.9770508,23.9257812
436,2180000,2480000,436,3986,8192,2615,150,-191,336,0.486572266,1,0.319213867,9.15527344,-11.6577148,20.5078125
437,2185008,2485008,437,3995,8270,2612,129,-151,282,0.487670898,1.00952148,0.318847656,7.87353516,-9.21630859,17.2119141
438,2190000,2490000,438,4007,8311,2615,99,-110,227,0.489135742,1.01452637,0.319213867,6.04248047,-6.71386719,13.8549805
439,2195008,2495008,439,3999,8281,2567,69,-74,174,0.48815918,1.01086426,0.313354492,4.21142578,-4.51660156,10.6201172
440,2200000,2500000,440,3987,8205,2488,48,-45,125,0.486694336,1.00158691,0.303710938,2.9296875,-2.74658203,7.62939453
441,2205008,2505008,441,3975,8114,2401,39,-18,81,0.485229492,0.990478516,0.29309082,2.38037109,-1.09863281,4.94384766
442,2210000,2510000,442,3961,8018,2312,37,11,39,0.483520508,0.978759766,0.282226562,2.25830078,0.671386719,2.38037109
443,2215008,2515008,443,3958,7966,2248,43,37,-5,0.483154297,0.972412109,0.274414062,2.62451172,2.25830078,-0.305175781
444,2220000,2520000,444,3969,7982,2225,51,62,-49,0.48449707,0.974365234,0.271606445,3.11279297,3.78417969,-2.99072266
445,2225008,2525008,445,3962,8038,2223,53,89,-91,0.483642578,0.981201172,0.271362305,3.23486328,5.43212891,-5.55419922
446,2230000,2530000,446,3939,8131,2226,48,114,-131,0.480834961,0.992553711,0.271728516,2.9296875,6.95800781,-7.99560547
447,2235008,2535008,447,3934,8233,2277,35,140,-169,0.480224609,1.00500488,0.277954102,2.13623047,8.54492188,-10.3149414
448,2240000,2540000,448,3926,8304,2353,22,170,-206,0.479248047,1.01367188,0.287231445,1.34277344,10.3759766,-12.5732422
449,2245008,2545008,449,3873,8379,2412,15,196,-245,0.47277832,1.02282715,0.294433594,0.915527344,11.9628906,-14.9536133
450,2250000,2550000,450,3806,8463,2490,8,219,-290,0.464599609,1.03308105,0.303955078,0.48828125,13.3666992,-17.7001953
451,2255008,2555008,451,3759,8554,2565,-10,241,-335,0.458862305,1.04418945,0.313110352,-0.610351562,14.7094727,-20.4467773
452,2260000,2560000,452,3745,8665,2617,-36,260,-377,0.45715332,1.05773926,0.319458008,-2.19726562,15.8691406,-23.0102539
453,2265008,2565008,453,3753,8793,2668,-65,277,-420,0.458129883,1.07336426,0.325683594,-3.96728516,16.9067383,-25.6347656
454,2270000,2570000,454,3757,8902,2719,-100,295,-465,0.458618164,1.08666992,0.33190918,-6.10351562,18.0053711,-28.3813477
455,2275008,2575008,455,3735,8961,2770,-145,316,-513,0.455932617,1.09387207,0.338134766,-8.85009766,19.2871094,-31.3110352
456,2280000,2580000,456,3703,8992,2805,-192,336,-568,0.452026367,1.09765625,0.342407227,-11.71875,20.5078125,-34.6679688
457,2285008,2585008,457,3704,9038,2870,-232,361,-627,0.452148438,1.10327148,0.350341797,-14.1601562,22.0336914,-38.269043
458,2290000,2590000,458,3714,9121,2977,-264,392,-695,0.453369141,1.11340332,0.36340332,-16.1132812,23.9257812,-42.4194336
459,2295008,2595008,459,3747,9219,3069,-293,425,-770,0.457397461,1.12536621,0.374633789,-17.8833008,25.9399414,-46.9970703
460,2300000,2600000,460,3805,9290,3162,-321,458,-845,0.464477539,1.1340332,0.385986328,-19.5922852,27.9541016,-51.574707
461,2305008,2605008,461,3878,9313,3274,-356,497,-916,0.473388672,1.13684082,0.399658203,-21.7285156,30.3344727,-55.9082031
462,2310000,2610000,462,3942,9334,3378,-386,546,-992,0.481201172,1.1394043,0.412353516,-23.5595703,33.3251953,-60.546875
463,2315008,2615008,463,4019,9402,3519,-401,603,-1081,0.490600586,1.14770508,0.42956543,-24.4750977,36.8041992,-65.9790039
464,2320000,2620000,464,4117,9516,3702,-406,672,-1181,0.502563477,1.16162109,0.451904297,-24.7802734,41.015625,-72.0825195
465,2325008,2625008,465,4188,9615,3872,-410,749,-1285,0.511230469,1.17370605,0.47265625,-25.0244141,45.715332,-78.4301758
466,2330000,2630000,466,4222,9683,4010,-417,824,-1390,0.515380859,1.18200684,0.489501953,-25.4516602,50.2929688,-84.8388672
467,2335008,2635008,467,4237,9712,4083,-439,895,-1493,0.517211914,1.18554688,0.498413086,-26.7944336,54.6264648,-91.1254883
468,2340000,2640000,468,4316,9680,4103,-468,956,-1596,0.526855469,1.18164062,0.500854492,-28.5644531,58.3496094,-97.4121094
469,2345008,2645008,469,4449,9648,4141,-499,1026,-1704,0.54309082,1.17773438,0.505493164,-30.456543,62.6220703,-104.003906
470,2350000,2650000,470,4590,9642,4208,-526,1113,-1816,0.560302734,1.17700195,0.513671875,-32.1044922,67.9321289,-110.839844
471,2355008,2655008,471,4710,9635,4313,-546,1214,-1933,0.574951172,1.17614746,0.526489258,-33.3251953,74.0966797,-117.980957
472,2360000,2660000,472,4774,9590,4425,-568,1321,-2040,0.582763672,1.1706543,0.540161133,-34.6679688,80.6274414,-124.511719
473,2365008,2665008,473,4790,9528,4510,-592,1420,-2131,0.584716797,1.16308594,0.550537109,-36.1328125,86.6699219,-130.065918
474,2370000,2670000,474,4775,9507,4647,-613,1520,-2211,0.582885742,1.16052246,0.567260742,-37.4145508,92.7734375,-134.94873
475,2375008,2675008,475,4755,9528,4800,-633,1619,-2282,0.580444336,1.16308594,0.5859375,-38.6352539,98.815918,-139.282227
476,2380000,2680000,476,4750,9556,4923,-650,1702,-2344,0.579833984,1.16650391,0.600952148,-39.6728516,103.881836,-143.066406
477,2385008,2685008,477,4792,9559,5008,-670,1770,-2393,0.584960938,1.16687012,0.611328125,-40.8935547,108.032227,-146.057129
478,2390000,2690000,478,4839,9537,5040,-695,1830,-2434,0.590698242,1.16418457,0.615234375,-42.4194336,111.694336,-148.55957
479,2395008,2695008,479,4884,9520,5112,-732,1890,-2473,0.596191406,1.16210938,0.624023438,-44.6777344,115.356445,-150.939941
480,2400000,2700000,480,4976,9458,5185,-780,1945,-2513,0.607421875,1.15454102,0.63293457,-47.6074219,118.713379,-153.381348
481,2405008,2705008,481,5071,9291,5193,-826,1997,-2551,0.619018555,1.13415527,0.633911133,-50.4150391,121.887207,-155.700684
482,2410000,2710000,482,5099,9053,5179,-871,2051,-2586,0.622436523,1.10510254,0.632202148,-53.1616211,125.183105,-157.836914
483,2415008,2715008,483,5068,8817,5083,-921,2098,-2618,0.618652344,1.07629395,0.620483398,-56.2133789,128.051758,-159.790039
484,2420000,2720000,484,5016,8638,4980,-972,2144,-2654,0.612304688,1.05444336,0.607910156,-59.3261719,130.859375,-161.987305
485,2425008,2725008,485,4949,8574,4976,-1037,2194,-2699,0.604125977,1.04663086,0.607421875,-63.293457,133.911133,-164.733887
486,2430000,2730000,486,4898,8568,4964,-1119,2239,-2745,0.597900391,1.04589844,0.605957031,-68.2983398,136.657715,-167.541504
487,2435008,2735008,487,4799,8558,4997,-1196,2281,-2782,0.58581543,1.04467773,0.609985352,-72.9980469,139.221191,-169.799805
488,2440000,2740000,488,4586,8547,5107,-1266,2328,-2809,0.559814453,1.04333496,0.623413086,-77.2705078,142.089844,-171.447754
489,2445008,2745008,489,4309,8416,5132,-1330,2354,-2816,0.526000977,1.02734375,0.626464844,-81.1767578,143.676758,-171.875
490,2450000,2750000,490,3980,8152,5098,-1384,2352,-2797,0.485839844,0.995117188,0.622314453,-84.4726562,143.554688,-170.715332
491,2455008,2755008,491,3591,7885,5087,-1432,2355,-2762,0.438354492,0.962524414,0.62097168,-87.4023438,143.737793,-168.579102
492,2460000,2760000,492,3150,7775,5069,-1472,2365,-2729,0.384521484,0.94909668,0.618774414,-89.84375,144.348145,-166.564941
493,2465008,2765008,493,2709,7905,5028,-1493,2377,-2716,0.330688477,0.96496582,0.613769531,-91.1254883,145.080566,-165.771484
494,2470000,2770000,494,2386,8130,4970,-1489,2387,-2713,0.291259766,0.992431641,0.606689453,-90.8813477,145.690918,-165.588379
495,2475008,2775008,495,2118,8234,4923,-1475,2396,-2684,0.258544922,1.00512695,0.600952148,-90.0268555,146.240234,-163.818359
496,2480000,2780000,496,1783,8184,4859,-1472,2400,-2629,0.217651367,0.999023438,0.593139648,-89.84375,146.484375,-160.461426
497,2485008,2785008,497,1506,8057,4639,-1465,2382,-2572,0.183837891,0.983520508,0.56628418,-89.4165039,145.385742,-156.982422
498,2490000,2790000,498,1279,7907,4434,-1425,2362,-2524,0.15612793,0.965209961,0.541259766,-86.9750977,144.165039,-154.052734
499,2495008,2795008,499,1024,7749,4388,-1367,2368,-2480,0.125,0.945922852,0.535644531,-83.4350586,144.53125,-151.367188
500,2500000,2800000,500,792,7596,4368,-1303,2372,-2441,0.0966796875,0.927246094,0.533203125,-79.5288086,144.775391,-148.986816
501,2505008,2805008,501,543,7539,4439,-1230,2376,-2419,0.0662841797,0.920288086,0.541870117,-75.0732422,145.019531,-147.644043
502,2510000,2810000,502,273,7654,4629,-1158,2396,-2425,0.0333251953,0.934326172,0.565063477,-70.6787109,146.240234,-148.010254
503,2515008,2815008,503,93,7856,4747,-1097,2420,-2450,0.0113525391,0.958984375,0.579467773,-66.9555664,147.705078,-149.536133
504,2520000,2820000,504,-10,8061,4726,-1052,2429,-2476,-0.00122070312,0.984008789,0.576904297,-64.2089844,148.254395,-151.123047
505,2525008,2825008,505,-138,8242,4671,-1029,2424,-2493,-0.0168457031,1.00610352,0.57019043,-62.8051758,147.949219,-152.160645
506,2530000,2830000,506,-331,8386,4695,-1035,2426,-2505,-0.0404052734,1.02368164,0.573120117,-63.1713867,148.071289,-152.893066
507,2535008,2835008,507,-575,8478,4817,-1064,2437,-2516,-0.0701904297,1.03491211,0.588012695,-64.9414062,148.742676,-153.564453
508,2540000,2840000,508,-748,8452,4890,-1086,2450,-2529,-0.0913085938,1.03173828,0.596923828,-66.2841797,149.536133,-154.35791
509,2545008,2845008,509,-854,8325,4928,-1085,2463,-2529,-0.104248047,1.01623535,0.6015625,-66.2231445,150.32959,-154.35791
510,2550000,2850000,510,-904,8150,4879,-1079,2469,-2525,-0.110351562,0.994873047,0.595581055,-65.8569336,150.695801,-154.11377
511,2555008,2855008,511,-983,7959,4634,-1066,2474,-2527,-0.119995117,0.971557617,0.565673828,-65.0634766,151.000977,-154.23584
512,2560000,2860000,512,-1186,7800,4379,-1025,2489,-2526,-0.144775391,0.952148438,0.534545898,-62.5610352,151.916504,-154.174805
513,2565008,2865008,513,-1465,7692,4196,-958,2520,-2527,-0.178833008,0.938964844,0.512207031,-58.4716797,153.808594,-154.23584
514,2570000,2870000,514,-1664,7486,3886,-870,2551,-2521,-0.203125,0.913818359,0.474365234,-53.1005859,155.700684,-153.869629
515,2575008,2875008,515,-1786,7099,3462,-759,2569,-2492,-0.218017578,0.866577148,0.422607422,-46.3256836,156.799316,-152.099609
516,2580000,2880000,516,-1986,6647,3077,-638,2582,-2447,-0.242431641,0.811401367,0.375610352,-38.9404297,157.592773,-149.353027
517,2585008,2885008,517,-2228,6311,2810,-502,2599,-2398,-0.271972656,0.770385742,0.343017578,-30.6396484,158.630371,-146.362305
518,2590000,2890000,518,-2459,6110,2712,-349,2622,-2351,-0.300170898,0.745849609,0.331054688,-21.3012695,160.03418,-143.493652
519,2595008,2895008,519,-2686,5907,2644,-196,2641,-2299,-0.327880859,0.721069336,0.322753906,-11.9628906,161.193848,-140.319824
520,2600000,2900000,520,-2932,5710,2573,-54,2650,-2250,-0.357910156,0.697021484,0.314086914,-3.29589844,161.743164,-137.329102
521,2605008,2905008,521,-3172,5613,2602,67,2656,-2208,-0.387207031,0.685180664,0.317626953,4.08935547,162.109375,-134.765625
522,2610000,2910000,522,-3389,5627,2746,165,2664,-2174,-0.413696289,0.686889648,0.335205078,10.0708008,162.597656,-132.69043
523,2615008,2915008,523,-3600,5638,2926,240,2672,-2162,-0.439453125,0.688232422,0.357177734,14.6484375,163.085938,-131.958008
524,2620000,2920000,524,-3698,5481,2953,281,2661,-2158,-0.451416016,0.669067383,0.360473633,17.1508789,162.414551,-131.713867
525,2625008,2925008,525,-3680,5288,2788,294,2609,-2144,-0.44921875,0.645507812,0.340332031,17.9443359,159.240723,-130.859375
526,2630000,2930000,526,-3711,5267,2661,277,2547,-2133,-0.45300293,0.642944336,0.324829102,16.9067383,155.456543,-130.187988
527,2635008,2935008,527,-3795,5300,2712,232,2502,-2135,-0.463256836,0.646972656,0.331054688,14.1601562,152.709961,-130.310059
528,2640000,2940000,528,-3953,5316,2918,173,2466,-2146,-0.482543945,0.648925781,0.356201172,10.559082,150.512695,-130.981445
529,2645008,2945008,529,-4128,5281,3034,107,2432,-2164,-0.50390625,0.64465332,0.370361328,6.53076172,148.4375,-132.080078
530,2650000,2950000,530,-4187,5159,2900,32,2382,-2174,-0.511108398,0.629760742,0.354003906,1.953125,145.385742,-132.69043
531,2655008,2955008,531,-4205,5069,2677,-61,2315,-2164,-0.513305664,0.618774414,0.326782227,-3.72314453,141.296387,-132.080078
532,2660000,2960000,532,-4212,5026,2497,-155,2253,-2137,-0.514160156,0.613525391,0.30480957,-9.46044922,137.512207,-130.432129
533,2665008,2965008,533,-4115,4930,2359,-231,2188,-2102,-0.502319336,0.601806641,0.287963867,-14.0991211,133.544922,-128.295898
534,2670000,2970000,534,-4058,4730,2242,-286,2129,-2066,-0.495361328,0.577392578,0.273681641,-17.4560547,129.943848,-126.098633
535,2675008,2975008,535,-4097,4467,2112,-312,2086,-2033,-0.50012207,0.545288086,0.2578125,-19.0429688,127.319336,-124.084473
536,2680000,2980000,536,-4175,4276,2025,-313,2052,-2001,-0.509643555,0.521972656,0.247192383,-19.1040039,125.244141,-122.131348
537,2685008,2985008,537,-4319,4203,2068,-306,2025,-1969,-0.52722168,0.513061523,0.252441406,-18.6767578,123.596191,-120.178223
538,2690000,2990000,538,-4511,4160,2116,-293,2012,-1946,-0.55065918,0.5078125,0.258300781,-17.8833008,122.802734,-118.774414
539,2695008,2995008,539,-4586,3926,1950,-254,2001,-1915,-0.559814453,0.479248047,0.238037109,-15.5029297,122.131348,-116.882324
540,2700000,3000000,540,-4478,3551,1687,-207,1961,-1868,-0.546630859,0.43347168,0.205932617,-12.6342773,119.689941,-114.013672
541,2705008,3005008,541,-4420,3370,1560,-175,1906,-1823,-0.539550781,0.411376953,0.190429688,-10.6811523,116.333008,-111.26709
542,2710000,3010000,542,-4529,3419,1653,-136,1899,-1794,-0.552856445,0.417358398,0.201782227,-8.30078125,115.905762,-109.49707
543,2715008,3015008,543,-4725,3529,1837,-81,1921,-1783,-0.576782227,0.430786133,0.224243164,-4.94384766,117.248535,-108.825684
544,2720000,3020000,544,-4866,3593,1883,-46,1909,-1772,-0.593994141,0.438598633,0.229858398,-2.80761719,116.516113,-108.154297
545,2725008,3025008,545,-4958,3663,1839,-52,1879,-1767,-0.605224609,0.447143555,0.224487305,-3.17382812,114.685059,-107.849121
546,2730000,3030000,546,-5026,3738,1841,-91,1850,-1768,-0.613525391,0.456298828,0.224731445,-5.55419922,112.915039,-107.910156
547,2735008,3035008,547,-5069,3763,1918,-141,1821,-1766,-0.618774414,0.459350586,0.234130859,-8.60595703,111.14502,-107.788086
548,2740000,3040000,548,-5092,3732,1850,-196,1791,-1758,-0.621582031,0.455566406,0.225830078,-11.9628906,109.313965,-107.299805
549,2745008,3045008,549,-5105,3585,1522,-251,1755,-1746,-0.623168945,0.43762207,0.185791016,-15.3198242,107.116699,-106.567383
550,2750000,3050000,550,-5149,3341,1130,-302,1704,-1719,-0.628540039,0.407836914,0.137939453,-18.4326172,104.003906,-104.919434
551,2755008,3055008,551,-5238,3098,840,-346,1649,-1680,-0.639404297,0.378173828,0.102539062,-21.1181641,100.646973,-102.539062
552,2760000,3060000,552,-5330,2891,684,-376,1615,-1644,-0.650634766,0.352905273,0.0834960938,-22.9492188,98.5717773,-100.341797
553,2765008,3065008,553,-5335,2666,537,-390,1584,-1603,-0.651245117,0.325439453,0.0655517578,-23.8037109,96.6796875,-97.8393555
554,2770000,3070000,554,-5420,2435,442,-394,1555,-1561,-0.661621094,0.297241211,0.0539550781,-24.0478516,94.909668,-95.2758789
555,2775008,3075008,555,-5566,2192,378,-390,1536,-1532,-0.679443359,0.267578125,0.0461425781,-23.8037109,93.75,-93.5058594
556,2780000,3080000,556,-5657,1978,337,-380,1511,-1499,-0.690551758,0.241455078,0.0411376953,-23.1933594,92.2241211,-91.4916992
557,2785008,3085008,557,-5760,1828,399,-360,1489,-1457,-0.703125,0.223144531,0.0487060547,-21.9726562,90.8813477,-88.9282227
558,2790000,3090000,558,-5811,1697,436,-310,1477,-1412,-0.709350586,0.20715332,0.0532226562,-18.9208984,90.1489258,-86.1816406
559,2795008,3095008,559,-5853,1506,340,-249,1447,-1358,-0.714477539,0.183837891,0.0415039062,-15.1977539,88.3178711,-82.8857422
560,2800000,3100000,560,-5975,1344,290,-211,1401,-1307,-0.729370117,0.1640625,0.0354003906,-12.878418,85.5102539,-79.7729492
561,2805008,3105008,561,-6145,1322,427,-186,1379,-1280,-0.75012207,0.161376953,0.0521240234,-11.3525391,84.1674805,-78.125
562,2810000,3110000,562,-6273,1375,587,-161,1373,-1268,-0.76574707,0.16784668,0.0716552734,-9.82666016,83.8012695,-77.3925781
563,2815008,3115008,563,-6364,1498,650,-147,1350,-1248,-0.776855469,0.182861328,0.0793457031,-8.97216797,82.3974609,-76.171875
564,2820000,3120000,564,-6419,1671,599,-154,1311,-1216,-0.783569336,0.203979492,0.0731201172,-9.39941406,80.0170898,-74.21875
565,2825008,3125008,565,-6451,1887,502,-179,1261,-1178,-0.787475586,0.23034668,0.0612792969,-10.925293,76.965332,-71.8994141
566,2830000,3130000,566,-6474,2055,458,-221,1204,-1134,-0.790283203,0.250854492,0.0559082031,-13.4887695,73.4863281,-69.2138672
567,2835008,3135008,567,-6472,2106,417,-275,1147,-1084,-0.790039062,0.257080078,0.0509033203,-16.784668,70.0073242,-66.1621094
568,2840000,3140000,568,-6468,2060,242,-326,1089,-1035,-0.789550781,0.251464844,0.0295410156,-19.8974609,66.4672852,-63.1713867
569,2845008,3145008,569,-6471,2007,4,-367,1032,-996,-0.789916992,0.244995117,0.00048828125,-22.3999023,62.9882812,-60.7910156
570,2850000,3150000,570,-6410,1920,-190,-393,989,-962,-0.782470703,0.234375,-0.0231933594,-23.9868164,60.3637695,-58.7158203
571,2855008,3155008,571,-6348,1767,-324,-397,957,-921,-0.774902344,0.215698242,-0.0395507812,-24.230957,58.4106445,-56.2133789
572,2860000,3160000,572,-6352,1656,-416,-373,940,-883,-0.775390625,0.202148438,-0.05078125,-22.7661133,57.3730469,-53.894043
573,2865008,3165008,573,-6396,1548,-523,-322,934,-852,-0.780761719,0.188964844,-0.0638427734,-19.6533203,57.0068359,-52.0019531
574,2870000,3170000,574,-6466,1468,-561,-254,932,-815,-0.789306641,0.179199219,-0.0684814453,-15.5029297,56.8847656,-49.7436523
575,2875008,3175008,575,-6575,1501,-501,-175,935,-781,-0.802612305,0.183227539,-0.0611572266,-10.6811523,57.0678711,-47.668457
576,2880000,3180000,576,-6683,1563,-420,-91,940,-751,-0.815795898,0.190795898,-0.0512695312,-5.55419922,57.3730469,-45.8374023
577,2885008,3185008,577,-6672,1624,-250,-25,934,-708,-0.814453125,0.198242188,-0.0305175781,-1.52587891,57.0068359,-43.2128906
578,2890000,3190000,578,-6813,1702,-9,16,930,-666,-0.831665039,0.207763672,-0.00109863281,0.9765625,56.7626953,-40.6494141
579,2895008,3195008,579,-7082,1725,66,50,922,-641,-0.864501953,0.210571289,0.00805664062,3.05175781,56.2744141,-39.1235352
580,2900000,3200000,580,-7235,1824,83,72,896,-620,-0.883178711,0.22265625,0.0101318359,4.39453125,54.6875,-37.8417969
581,2905008,3205008,581,-7279,2017,203,69,875,-603,-0.888549805,0.24621582,0.0247802734,4.21142578,53.4057617,-36.8041992
582,2910000,3210000,582,-7272,2115,250,49,853,-587,-0.887695312,0.258178711,0.0305175781,2.99072266,52.0629883,-35.8276367
583,2915008,3215008,583,-7304,2139,141,20,821,-572,-0.891601562,0.261108398,0.0172119141,1.22070312,50.1098633,-34.9121094
584,2920000,3220000,584,-7317,2139,-81,-12,780,-560,-0.893188477,0.261108398,-0.00988769531,-0.732421875,47.6074219,-34.1796875
585,2925008,3225008,585,-7329,2096,-266,-42,735,-544,-0.89465332,0.255859375,-0.0324707031,-2.56347656,44.8608398,-33.203125
586,2930000,3230000,586,-7352,2006,-332,-64,705,-526,-0.897460938,0.244873047,-0.0405273438,-3.90625,43.0297852,-32.1044922
587,2935008,3235008,587,-7398,1894,-327,-61,693,-511,-0.903076172,0.231201172,-0.0399169922,-3.72314453,42.2973633,-31.1889648
588,2940000,3240000,588,-7465,1792,-425,-39,675,-498,-0.911254883,0.21875,-0.0518798828,-2.38037109,41.1987305,-30.3955078
589,2945008,3245008,589,-7500,1747,-626,-14,643,-488,-0.915527344,0.213256836,-0.0764160156,-0.854492188,39.2456055,-29.7851562
590,2950000,3250000,590,-7484,1727,-760,9,612,-476,-0.913574219,0.21081543,-0.0927734375,0.549316406,37.3535156,-29.0527344
591,2955008,3255008,591,-7445,1673,-807,33,583,-451,-0.908813477,0.204223633,-0.0985107422,2.01416016,35.5834961,-27.5268555
592,2960000,3260000,592,-7394,1599,-856,56,546,-420,-0.902587891,0.19519043,-0.104492188,3.41796875,33.3251953,-25.6347656
593,2965008,3265008,593,-7335,1533,-962,77,511,-387,-0.895385742,0.187133789,-0.117431641,4.69970703,31.1889648,-23.6206055
594,2970000,3270000,594,-7294,1459,-1115,102,478,-353,-0.890380859,0.178100586,-0.136108398,6.22558594,29.1748047,-21.5454102
595,2975008,3275008,595,-7262,1381,-1203,136,446,-320,-0.886474609,0.168579102,-0.146850586,8.30078125,27.2216797,-19.53125
596,2980000,3280000,596,-7227,1330,-1172,176,423,-287,-0.882202148,0.162353516,-0.143066406,10.7421875,25.8178711,-17.5170898
597,2985008,3285008,597,-7198,1285,-1114,217,406,-254,-0.878662109,0.156860352,-0.135986328,13.2446289,24.7802734,-15.5029297
598,2990000,3290000,598,-7204,1250,-1097,248,382,-223,-0.879394531,0.152587891,-0.133911133,15.1367188,23.3154297,-13.6108398
599,2995008,3295008,599,-7219,1244,-1114,263,345,-192,-0.881225586,0.151855469,-0.135986328,16.0522461,21.0571289,-11.71875
600,3000000,3300000,600,-7213,1281,-1120,259,301,-160,-0.880493164,0.15637207,-0.13671875,15.8081055,18.371582,-9.765625
601,3005008,3305008,601,-7197,1316,-1127,234,250,-127,-0.878540039,0.160644531,-0.137573242,14.2822266,15.2587891,-7.75146484
602,3010000,3310000,602,-7158,1281,-1158,196,193,-89,-0.873779297,0.15637207,-0.141357422,11.9628906,11.7797852,-5.43212891
603,3015008,3315008,603,-7138,1199,-1220,152,133,-52,-0.871337891,0.146362305,-0.148925781,9.27734375,8.11767578,-3.17382812
604,3020000,3320000,604,-7125,1083,-1341,106,70,-15,-0.869750977,0.132202148,-0.163696289,6.46972656,4.27246094,-0.915527344
605,3025008,3325008,605,-7082,955,-1488,70,4,28,-0.864501953,0.116577148,-0.181640625,4.27246094,0.244140625,1.70898438
606,3030000,3330000,606,-7039,854,-1616,42,-62,75,-0.85925293,0.104248047,-0.197265625,2.56347656,-3.78417969,4.57763672
607,3035008,3335008,607,-6997,763,-1722,23,-130,124,-0.854125977,0.0931396484,-0.210205078,1.40380859,-7.93457031,7.56835938
608,3040000,3340000,608,-6944,679,-1821,12,-198,176,-0.84765625,0.0828857422,-0.222290039,0.732421875,-12.0849609,10.7421875
609,3045008,3345008,609,-6873,599,-1922,8,-268,235,-0.838989258,0.0731201172,-0.234619141,0.48828125,-16.3574219,14.3432617
610,3050000,3350000,610,-6804,519,-2030,14,-336,299,-0.830566406,0.0633544922,-0.247802734,0.854492188,-20.5078125,18.2495117
611,3055008,3355008,611,-6755,472,-2138,31,-401,364,-0.824584961,0.0576171875,-0.260986328,1.89208984,-24.4750977,22.2167969
612,3060000,3360000,612,-6687,455,-2221,56,-468,428,-0.81628418,0.0555419922,-0.271118164,3.41796875,-28.5644531,26.1230469
613,3065008,3365008,613,-6621,420,-2272,87,-531,495,-0.808227539,0.0512695312,-0.27734375,5.31005859,-32.409668,30.2124023
614,3070000,3370000,614,-6592,365,-2292,125,-591,565,-0.8046875,0.0445556641,-0.279785156,7.62939453,-36.0717773,34.4848633
615,3075008,3375008,615,-6557,312,-2328,166,-652,633,-0.800415039,0.0380859375,-0.284179688,10.1318359,-39.7949219,38.6352539
616,3080000,3380000,616,-6490,242,-2392,212,-715,699,-0.792236328,0.0295410156,-0.291992188,12.9394531,-43.6401367,42.6635742
617,3085008,3385008,617,-6404,159,-2468,257,-778,770,-0.781738281,0.0194091797,-0.301269531,15.6860352,-47.4853516,46.9970703
618,3090000,3390000,618,-6331,78,-2596,300,-841,847,-0.772827148,0.00952148438,-0.316894531,18.3105469,-51.3305664,51.6967773
619,3095008,3395008,619,-6274,-9,-2736,353,-906,925,-0.765869141,-0.00109863281,-0.333984375,21.5454102,-55.2978516,56.4575195
620,3100000,3400000,620,-6221,-103,-2826,413,-971,1002,-0.759399414,-0.0125732422,-0.344970703,25.2075195,-59.2651367,61.1572266
621,3105008,3405008,621,-6158,-213,-2819,474,-1032,1082,-0.751708984,-0.0260009766,-0.344116211,28.9306641,-62.9882812,66.0400391
622,3110000,3410000,622,-6146,-288,-2612,518,-1087,1164,-0.750244141,-0.03515625,-0.318847656,31.6162109,-66.3452148,71.0449219
623,3115008,3415008,623,-6225,-210,-2246,535,-1143,1243,-0.759887695,-0.0256347656,-0.274169922,32.6538086,-69.7631836,75.8666992
624,3120000,3420000,624,-6341,104,-1781,539,-1201,1302,-0.774047852,0.0126953125,-0.217407227,32.8979492,-73.3032227,79.4677734
625,3125008,3425008,625,-6426,538,-1266,530,-1272,1338,-0.784423828,0.0656738281,-0.154541016,32.3486328,-77.6367188,81.6650391
626,3130000,3430000,626,-6488,920,-899,498,-1362,1374,-0.791992188,0.112304688,-0.109741211,30.3955078,-83.1298828,83.8623047
627,3135008,3435008,627,-6595,1247,-712,441,-1477,1419,-0.805053711,0.15222168,-0.0869140625,26.9165039,-90.1489258,86.6088867
628,3140000,3440000,628,-6726,1499,-545,361,-1591,1472,-0.821044922,0.182983398,-0.0665283203,22.0336914,-97.1069336,89.84375
629,3145008,3445008,629,-6836,1707,-420,270,-1691,1526,-0.834472656,0.208374023,-0.0512695312,16.4794922,-103.210449,93.1396484
630,3150000,3450000,630,-6848,1922,-311,175,-1792,1568,-0.8359375,0.234619141,-0.0379638672,10.6811523,-109.375,95.703125
631,3155008,3455008,631,-6663,1998,-364,77,-1886,1599,-0.813354492,0.243896484,-0.0444335938,4.69970703,-115.112305,97.5952148
632,3160000,3460000,632,-6401,1939,-623,13,-1987,1647,-0.78137207,0.236694336,-0.0760498047,0.793457031,-121.276855,100.524902
633,3165008,3465008,633,-6279,1882,-735,-6,-2066,1698,-0.766479492,0.229736328,-0.0897216797,-0.366210938,-126.098633,103.637695
634,3170000,3470000,634,-6241,1761,-832,14,-2086,1732,-0.76184082,0.21496582,-0.1015625,0.854492188,-127.319336,105.712891
635,3175008,3475008,635,-6180,1597,-986,77,-2080,1770,-0.754394531,0.194946289,-0.120361328,4.69970703,-126.953125,108.032227
636,3180000,3480000,636,-5989,1485,-1140,166,-2090,1817,-0.731079102,0.181274414,-0.139160156,10.1318359,-127.563477,110.900879
637,3185008,3485008,637,-5707,1440,-1303,268,-2103,1877,-0.696655273,0.17578125,-0.159057617,16.3574219,-128.356934,114.562988
638,3190000,3490000,638,-5468,1495,-1380,401,-2109,1930,-0.667480469,0.182495117,-0.168457031,24.4750977,-128.723145,117.797852
639,3195008,3495008,639,-5329,1595,-1166,555,-2098,1970,-0.650512695,0.194702148,-0.142333984,33.8745117,-128.051758,120.239258
640,3200000,3500000,640,-5278,1655,-858,687,-2041,2008,-0.644287109,0.202026367,-0.104736328,41.9311523,-124.572754,122.558594
641,3205008,3505008,641,-5231,1814,-647,792,-2013,2063,-0.638549805,0.221435547,-0.0789794922,48.3398438,-122.86377,125.915527
642,3210000,3510000,642,-5247,2253,-158,860,-2022,2122,-0.64050293,0.275024414,-0.0192871094,52.4902344,-123.413086,129.516602
643,3215008,3515008,643,-5368,2951,770,858,-2017,2154,-0.655273438,0.360229492,0.0939941406,52.3681641,-123.10791,131.469727
644,3220000,3520000,644,-5379,3657,1813,794,-2026,2180,-0.656616211,0.446411133,0.221313477,48.4619141,-123.657227,133.056641
645,3225008,3525008,645,-5399,4295,2740,700,-2066,2214,-0.659057617,0.524291992,0.334472656,42.7246094,-126.098633,135.131836
646,3230000,3530000,646,-5620,4854,3556,585,-2112,2253,-0.686035156,0.592529297,0.434082031,35.7055664,-128.90625,137.512207
647,3235008,3535008,647,-5945,5124,4055,471,-2120,2307,-0.725708008,0.625488281,0.494995117,28.7475586,-129.394531,140.808105
648,3240000,3540000,648,-6167,5072,3893,335,-2165,2377,-0.752807617,0.619140625,0.475219727,20.4467773,-132.141113,145.080566
649,3245008,3545008,649,-6074,4750,3149,159,-2298,2456,-0.741455078,0.579833984,0.384399414,9.70458984,-140.258789,149.902344
650,3250000,3550000,650,-5808,4334,2356,17,-2427,2518,-0.708984375,0.529052734,0.287597656,1.03759766,-148.132324,153.686523
651,3255008,3555008,651,-5337,3866,1679,-41,-2512,2553,-0.651489258,0.471923828,0.204956055,-2.50244141,-153.320312,155.822754
652,3260000,3560000,652,-4712,3382,1041,3,-2546,2572,-0.575195312,0.412841797,0.127075195,0.183105469,-155.395508,156.982422
653,3265008,3565008,653,-4071,3093,529,148,-2511,2557,-0.496948242,0.377563477,0.0645751953,9.03320312,-153.259277,156.066895
654,3270000,3570000,654,-3396,3084,231,369,-2408,2507,-0.414550781,0.376464844,0.0281982422,22.5219727,-146.972656,153.015137
655,3275008,3575008,655,-2824,3306,172,620,-2259,2440,-0.344726562,0.403564453,0.0209960938,37.8417969,-137.878418,148.925781
656,3280000,3580000,656,-2471,3609,281,855,-2094,2368,-0.301635742,0.440551758,0.0343017578,52.1850586,-127.807617,144.53125
657,3285008,3585008,657,-2382,3957,490,1066,-1940,2311,-0.290771484,0.483032227,0.0598144531,65.0634766,-118.408203,141.052246
658,3290000,3590000,658,-2441,4323,827,1253,-1812,2291,-0.297973633,0.527709961,0.100952148,76.4770508,-110.595703,139.831543
659,3295008,3595008,659,-2638,4721,1325,1397,-1729,2317,-0.322021484,0.576293945,0.161743164,85.2661133,-105.529785,141.418457
660,3300000,3600000,660,-2998,5314,2131,1462,-1686,2350,-0.365966797,0.648681641,0.260131836,89.2333984,-102.905273,143.432617
661,3305008,3605008,661,-3389,6193,3171,1417,-1659,2357,-0.413696289,0.755981445,0.387084961,86.4868164,-101.257324,143.859863
662,3310000,3610000,662,-3679,7247,4181,1277,-1670,2347,-0.44909668,0.884643555,0.510375977,77.9418945,-101.928711,143.249512
663,3315008,3615008,663,-3782,8231,5049,1063,-1744,2345,-0.461669922,1.00476074,0.616333008,64.8803711,-106.445312,143.127441
664,3320000,3620000,664,-3770,8884,5693,800,-1870,2383,-0.460205078,1.08447266,0.694946289,48.828125,-114.135742,145.446777
665,3325008,3625008,665,-3871,9057,6179,520,-2008,2454,-0.47253418,1.10559082,0.754272461,31.7382812,-122.558594,149.780273
666,3330000,3630000,666,-4057,8725,6522,238,-2132,2524,-0.495239258,1.06506348,0.796142578,14.5263672,-130.126953,154.052734
667,3335008,3635008,667,-4168,8054,6382,11,-2259,2591,-0.508789062,0.983154297,0.779052734,0.671386719,-137.878418,158.14209
668,3340000,3640000,668,-4078,7296,5612,-106,-2402,2641,-0.497802734,0.890625,0.685058594,-6.46972656,-146.606445,161.193848
669,3345008,3645008,669,-3711,6639,4399,-133,-2540,2669,-0.45300293,0.810424805,0.536987305,-8.11767578,-155.029297,162.902832
670,3350000,3650000,670,-3149,6281,3107,-79,-2644,2669,-0.384399414,0.766723633,0.379272461,-4.82177734,-161.376953,162.902832
671,3355008,3655008,671,-2255,6191,2220,46,-2674,2616,-0.275268555,0.755737305,0.270996094,2.80761719,-163.208008,159.667969
672,3360000,3660000,672,-1128,6239,1828,200,-2594,2535,-0.137695312,0.76159668,0.223144531,12.2070312,-158.325195,154.724121
673,3365008,3665008,673,-256,6400,1681,368,-2413,2437,-0.03125,0.78125,0.205200195,22.4609375,-147.277832,148.742676
674,3370000,3670000,674,191,6630,1702,554,-2197,2317,0.0233154297,0.809326172,0.207763672,33.8134766,-134.094238,141.418457
675,3375008,3675008,675,248,6761,1864,756,-1990,2202,0.0302734375,0.825317383,0.227539062,46.1425781,-121.459961,134.399414
676,3380000,3680000,676,-76,6752,2124,975,-1808,2130,-0.00927734375,0.82421875,0.259277344,59.5092773,-110.351562,130.004883
677,3385008,3685008,677,-624,6900,2598,1188,-1669,2090,-0.076171875,0.842285156,0.317138672,72.5097656,-101.867676,127.563477
678,3390000,3690000,678,-1119,7489,3380,1336,-1564,2035,-0.13659668,0.91418457,0.412597656,81.5429688,-95.4589844,124.206543
679,3395008,3695008,679,-1293,8413,4367,1357,-1496,1964,-0.157836914,1.02697754,0.533081055,82.824707,-91.3085938,119.873047
680,3400000,3700000,680,-1197,9408,5370,1235,-1479,1937,-0.146118164,1.1484375,0.655517578,75.378418,-90.2709961,118.225098
681,3405008,3705008,681,-1199,10304,6223,1016,-1517,1957,-0.146362305,1.2578125,0.759643555,62.0117188,-92.590332,119.445801
682,3410000,3710000,682,-1392,10837,6885,747,-1599,1972,-0.169921875,1.32287598,0.840454102,45.5932617,-97.5952148,120.361328
683,3415008,3715008,683,-1576,10867,7191,448,-1721,1982,-0.192382812,1.32653809,0.877807617,27.34375,-105.041504,120.97168
684,3420000,3720000,684,-1724,10628,7074,138,-1874,2003,-0.210449219,1.29736328,0.863525391,8.42285156,-114.379883,122.253418
685,3425008,3725008,685,-1744,10296,6614,-159,-2033,2024,-0.212890625,1.25683594,0.807373047,-9.70458984,-124.084473,123.535156
686,3430000,3730000,686,-1444,9842,5790,-428,-2181,2049,-0.176269531,1.20141602,0.706787109,-26.1230469,-133.117676,125.061035
687,3435008,3735008,687,-924,9178,4718,-630,-2308,2096,-0.112792969,1.12036133,0.575927734,-38.4521484,-140.869141,127.929688
688,3440000,3740000,688,-304,8267,3616,-715,-2389,2145,-0.037109375,1.00915527,0.44140625,-43.6401367,-145.812988,130.92041
689,3445008,3745008,689,327,7240,2643,-664,-2406,2170,0.0399169922,0.883789062,0.322631836,-40.5273438,-146.850586,132.446289
690,3450000,3750000,690,808,6256,1881,-494,-2350,2157,0.0986328125,0.763671875,0.229614258,-30.1513672,-143.432617,131.652832
691,3455008,3755008,691,1113,5446,1370,-228,-2230,2107,0.135864258,0.664794922,0.167236328,-13.9160156,-136.108398,128.601074
692,3460000,3760000,692,1339,4971,1149,117,-2060,2032,0.163452148,0.606811523,0.140258789,7.14111328,-125.732422,124.023438
693,3465008,3765008,693,1497,4929,1193,521,-1858,1945,0.182739258,0.60168457,0.145629883,31.7993164,-113.40332,118.713379
694,3470000,3770000,694,1604,5282,1423,966,-1654,1868,0.195800781,0.644775391,0.173706055,58.9599609,-100.952148,114.013672
695,3475008,3775008,695,1675,5900,1841,1402,-1480,1822,0.204467773,0.720214844,0.224731445,85.5712891,-90.3320312,111.206055
696,3480000,3780000,696,1655,6654,2356,1745,-1355,1816,0.202026367,0.812255859,0.287597656,106.506348,-82.7026367,110.839844
697,3485008,3785008,697,1571,7470,2986,1925,-1272,1848,0.191772461,0.911865234,0.364501953,117.492676,-77.6367188,112.792969
698,3490000,3790000,698,1409,8407,3921,1921,-1204,1890,0.17199707,1.02624512,0.478637695,117.248535,-73.4863281,115.356445
699,3495008,3795008,699,1183,9506,5093,1751,-1154,1904,0.14440918,1.16040039,0.621704102,106.872559,-70.4345703,116.210938
700,3500000,3800000,700,1029,10663,6248,1456,-1162,1899,0.125610352,1.30163574,0.762695312,88.8671875,-70.9228516,115.905762
701,3505008,3805008,701,1011,11682,7006,1063,-1253,1914,0.123413086,1.42602539,0.855224609,64.8803711,-76.4770508,116.821289
702,3510000,3810000,702,1072,12364,7201,614,-1412,1942,0.130859375,1.50927734,0.87902832,37.4755859,-86.1816406,118.530273
703,3515008,3815008,703,1228,12414,7086,146,-1589,1964,0.149902344,1.51538086,0.864990234,8.91113281,-96.9848633,119.873047
704,3520000,3820000,704,1279,11804,6695,-337,-1741,1979,0.15612793,1.44091797,0.817260742,-20.5688477,-106.262207,120.788574
705,3525008,3825008,705,1209,10871,5896,-742,-1862,1977,0.147583008,1.32702637,0.719726562,-45.2880859,-113.647461,120.666504
706,3530000,3830000,706,1354,9817,4946,-968,-1953,1970,0.165283203,1.19836426,0.603759766,-59.0820312,-119.20166,120.239258
707,3535008,3835008,707,1715,8746,4023,-1015,-2011,1967,0.209350586,1.06762695,0.491088867,-61.9506836,-122.741699,120.056152
708,3540000,3840000,708,2132,7793,3107,-911,-2022,1957,0.260253906,0.951293945,0.379272461,-55.6030273,-123.413086,119.445801
709,3545008,3845008,709,2503,7067,2340,-689,-1975,1931,0.305541992,0.862670898,0.285644531,-42.0532227,-120.544434,117.858887
710,3550000,3850000,710,2793,6599,1871,-388,-1871,1893,0.340942383,0.805541992,0.228393555,-23.6816406,-114.196777,115.539551
711,3555008,3855008,711,2985,6380,1701,-43,-1724,1846,0.364379883,0.778808594,0.207641602,-2.62451172,-105.224609,112.670898
712,3560000,3860000,712,3086,6382,1801,329,-1554,1798,0.376708984,0.779052734,0.219848633,20.0805664,-94.8486328,109.741211
713,3565008,3865008,713,3144,6577,2121,701,-1383,1752,0.383789062,0.802856445,0.258911133,42.7856445,-84.4116211,106.933594
714,3570000,3870000,714,3146,6982,2625,1028,-1222,1710,0.384033203,0.852294922,0.32043457,62.7441406,-74.5849609,104.370117
715,3575008,3875008,715,3084,7626,3296,1262,-1081,1671,0.376464844,0.930908203,0.40234375,77.0263672,-65.9790039,101.989746
716,3580000,3880000,716,2996,8475,4092,1370,-971,1635,0.365722656,1.0345459,0.499511719,83.6181641,-59.2651367,99.7924805
717,3585008,3885008,717,2884,9380,4901,1349,-895,1608,0.352050781,1.14501953,0.598266602,82.3364258,-54.6264648,98.1445312
718,3590000,3890000,718,2785,10137,5510,1223,-870,1593,0.33996582,1.23742676,0.672607422,74.6459961,-53.1005859,97.2290039
719,3595008,3895008,719,2740,10572,5794,1029,-904,1602,0.334472656,1.29052734,0.707275391,62.8051758,-55.1757812,97.7783203
720,3600000,3900000,720,2741,10607,5813,791,-968,1623,0.334594727,1.2947998,0.709594727,48.2788086,-59.0820312,99.0600586
721,3605008,3905008,721,2776,10342,5653,533,-1022,1635,0.338867188,1.26245117,0.690063477,32.5317383,-62.3779297,99.7924805
722,3610000,3910000,722,2807,9951,5326,298,-1049,1631,0.342651367,1.21472168,0.650146484,18.1884766,-64.0258789,99.5483398
723,3615008,3915008,723,2842,9517,4910,134,-1055,1619,0.346923828,1.16174316,0.599365234,8.17871094,-64.3920898,98.815918
724,3620000,3920000,724,2884,9058,4493,56,-1047,1605,0.352050781,1.10571289,0.548461914,3.41796875,-63.9038086,97.9614258
725,3625008,3925008,725,2923,8661,4092,50,-1030,1589,0.356811523,1.05725098,0.499511719,3.05175781,-62.8662109,96.9848633
726,3630000,3930000,726,3000,8395,3715,99,-1006,1569,0.366210938,1.02478027,0.453491211,6.04248047,-61.4013672,95.7641602
727,3635008,3935008,727,3106,8211,3442,189,-969,1549,0.379150391,1.00231934,0.420166016,11.5356445,-59.1430664,94.543457
728,3640000,3940000,728,3194,8060,3274,310,-917,1533,0.389892578,0.983886719,0.399658203,18.9208984,-55.9692383,93.5668945
729,3645008,3945008,729,3260,7952,3182,458,-855,1520,0.397949219,0.970703125,0.388427734,27.9541016,-52.1850586,92.7734375
730,3650000,3950000,730,3285,7919,3205,617,-784,1498,0.401000977,0.966674805,0.391235352,37.6586914,-47.8515625,91.4306641
731,3655008,3955008,731,3259,7994,3278,760,-714,1460,0.397827148,0.975830078,0.400146484,46.3867188,-43.5791016,89.1113281
732,3660000,3960000,732,3234,8166,3358,873,-652,1409,0.394775391,0.996826172,0.409912109,53.2836914,-39.7949219,85.9985352
733,3665008,3965008,733,3209,8348,3443,941,-593,1355,0.391723633,1.01904297,0.420288086,57.434082,-36.1938477,82.7026367
734,3670000,3970000,734,3183,8452,3522,962,-545,1307,0.388549805,1.03173828,0.429931641,58.7158203,-33.2641602,79.7729492
735,3675008,3975008,735,3161,8463,3580,948,-507,1263,0.385864258,1.03308105,0.437011719,57.8613281,-30.9448242,77.0874023
736,3680000,3980000,736,3116,8421,3580,915,-473,1217,0.380371094,1.0279541,0.437011719,55.847168,-28.8696289,74.2797852
737,3685008,3985008,737,3084,8375,3505,873,-451,1166,0.376464844,1.02233887,0.427856445,53.2836914,-27.5268555,71.1669922
738,3690000,3990000,738,3103,8354,3382,821,-442,1112,0.37878418,1.01977539,0.412841797,50.1098633,-26.9775391,67.8710938
739,3695008,3995008,739,3178,8339,3249,757,-438,1064,0.387939453,1.01794434,0.396606445,46.2036133,-26.7333984,64.9414062
740,3700000,4000000,740,3245,8318,3115,685,-431,1027,0.396118164,1.01538086,0.380249023,41.809082,-26.3061523,62.6831055
741,3705008,4005008,741,3263,8301,2989,604,-423,992,0.39831543,1.01330566,0.364868164,36.8652344,-25.8178711,60.546875
742,3710000,4010000,742,3240,8253,2889,524,-414,960,0.395507812,1.00744629,0.352661133,31.9824219,-25.2685547,58.59375
743,3715008,4015008,743,3209,8174,2810,450,-409,932,0.391723633,0.997802734,0.343017578,27.4658203,-24.9633789,56.8847656
744,3720000,4020000,744,3216,8112,2763,380,-414,906,0.392578125,0.990234375,0.337280273,23.1933594,-25.2685547,55.2978516
745,3725008,4025008,745,3245,8073,2750,314,-420,881,0.396118164,0.985473633,0.335693359,19.1650391,-25.6347656,53.7719727
746,3730000,4030000,746,3278,8035,2732,250,-422,862,0.400146484,0.980834961,0.333496094,15.2587891,-25.7568359,52.6123047
747,3735008,4035008,747,3290,7963,2715,195,-418,847,0.401611328,0.972045898,0.331420898,11.9018555,-25.5126953,51.6967773
748,3740000,4040000,748,3265,7834,2757,148,-401,837,0.39855957,0.956298828,0.336547852,9.03320312,-24.4750977,51.0864258
749,3745008,4045008,749,3251,7690,2695,112,-388,831,0.396850586,0.938720703,0.328979492,6.8359375,-23.6816406,50.7202148
750,3750000,4050000,750,3296,7634,2452,104,-398,814,0.40234375,0.931884766,0.299316406,6.34765625,-24.2919922,49.6826172
751,3755008,4055008,751,3410,7670,2200,118,-407,788,0.416259766,0.936279297,0.268554688,7.20214844,-24.8413086,48.0957031
752,3760000,4060000,752,3531,7691,2005,124,-390,767,0.431030273,0.938842773,0.244750977,7.56835938,-23.8037109,46.8139648
753,3765008,4065008,753,3602,7667,1895,120,-351,755,0.439697266,0.935913086,0.231323242,7.32421875,-21.4233398,46.081543
754,3770000,4070000,754,3605,7626,1888,118,-298,737,0.440063477,0.930908203,0.23046875,7.20214844,-18.1884766,44.9829102
755,3775008,4075008,755,3590,7592,1982,131,-240,702,0.438232422,0.926757812,0.241943359,7.99560547,-14.6484375,42.8466797
756,3780000,4080000,756,3559,7608,2102,158,-188,655,0.434448242,0.928710938,0.256591797,9.64355469,-11.4746094,39.9780273
757,3785008,4085008,757,3473,7683,2181,191,-148,601,0.423950195,0.937866211,0.266235352,11.6577148,-9.03320312,36.6821289
758,3790000,4090000,758,3387,7821,2219,217,-121,541,0.413452148,0.954711914,0.270874023,13.2446289,-7.38525391,33.0200195
759,3795008,4095008,759,3345,8020,2224,228,-99,477,0.408325195,0.979003906,0.271484375,13.9160156,-6.04248047,29.1137695
760,3800000,4100000,760,3322,8240,2219,224,-76,410,0.405517578,1.00585938,0.270874023,13.671875,-4.63867188,25.0244141
761,3805008,4105008,761,3317,8420,2223,208,-53,345,0.404907227,1.02783203,0.271362305,12.6953125,-3.23486328,21.0571289
762,3810000,4110000,762,3340,8515,2271,182,-29,287,0.407714844,1.03942871,0.27722168,11.1083984,-1.77001953,17.5170898
763,3815008,4115008,763,3357,8539,2359,143,-2,233,0.409790039,1.0423584,0.287963867,8.72802734,-0.122070312,14.2211914
764,3820000,4120000,764,3348,8528,2427,100,23,177,0.408691406,1.04101562,0.296264648,6.10351562,1.40380859,10.8032227
765,3825008,4125008,765,3324,8522,2462,57,39,121,0.405761719,1.0402832,0.300537109,3.47900391,2.38037109,7.38525391
766,3830000,4130000,766,3322,8539,2487,14,52,66,0.405517578,1.0423584,0.303588867,0.854492188,3.17382812,4.02832031
767,3835008,4135008,767,3342,8557,2490,-30,64,17,0.407958984,1.04455566,0.303955078,-1.83105469,3.90625,1.03759766
768,3840000,4140000,768,3362,8542,2444,-69,75,-25,0.410400391,1.04272461,0.298339844,-4.21142578,4.57763672,-1.52587891
769,3845008,4145008,769,3393,8505,2349,-99,83,-59,0.41418457,1.03820801,0.286743164,-6.04248047,5.06591797,-3.60107422
770,3850000,4150000,770,3434,8474,2243,-123,92,-89,0.419189453,1.03442383,0.273803711,-7.50732422,5.61523438,-5.43212891
771,3855008,4155008,771,3465,8459,2175,-140,106,-118,0.422973633,1.03259277,0.26550293,-8.54492188,6.46972656,-7.20214844
772,3860000,4160000,772,3483,8481,2162,-156,126,-149,0.425170898,1.03527832,0.263916016,-9.52148438,7.69042969,-9.09423828
773,3865008,4165008,773,3490,8529,2201,-175,151,-183,0.426025391,1.0411377,0.268676758,-10.6811523,9.21630859,-11.1694336
774,3870000,4170000,774,3479,8578,2240,-193,176,-222,0.424682617,1.04711914,0.2734375,-11.7797852,10.7421875,-13.5498047
775,3875008,4175008,775,3459,8635,2253,-208,192,-267,0.422241211,1.05407715,0.275024414,-12.6953125,11.71875,-16.2963867
776,3880000,4180000,776,3451,8726,2286,-225,209,-314,0.421264648,1.06518555,0.279052734,-13.7329102,12.7563477,-19.1650391
777,3885008,4185008,777,3437,8851,2360,-251,235,-367,0.419555664,1.08044434,0.288085938,-15.3198242,14.3432617,-22.3999023
778,3890000,4190000,778,3406,8973,2440,-274,265,-425,0.415771484,1.09533691,0.297851562,-16.7236328,16.1743164,-25.9399414
779,3895008,4195008,779,3373,9079,2528,-289,297,-485,0.411743164,1.10827637,0.30859375,-17.6391602,18.1274414,-29.6020508
780,3900000,4200000,780,3332,9152,2655,-300,324,-547,0.406738281,1.1171875,0.32409668,-18.3105469,19.7753906,-33.3862305
781,3905008,4205008,781,3290,9193,2776,-308,351,-609,0.401611328,1.12219238,0.338867188,-18.7988281,21.4233398,-37.1704102
782,3910000,4210000,782,3260,9263,2869,-314,379,-670,0.397949219,1.1307373,0.350219727,-19.1650391,23.1323242,-40.8935547
783,3915008,4215008,783,3233,9406,2968,-322,408,-735,0.39465332,1.14819336,0.362304688,-19.6533203,24.9023438,-44.8608398
784,3920000,4220000,784,3228,9602,3061,-340,439,-809,0.394042969,1.17211914,0.373657227,-20.7519531,26.7944336,-49.3774414
785,3925008,4225008,785,3251,9788,3139,-373,470,-889,0.396850586,1.19482422,0.383178711,-22.7661133,28.6865234,-54.2602539
786,3930000,4230000,786,3285,9923,3223,-419,504,-968,0.401000977,1.21130371,0.393432617,-25.5737305,30.7617188,-59.0820312
787,3935008,4235008,787,3307,10033,3325,-470,541,-1050,0.403686523,1.22473145,0.405883789,-28.6865234,33.0200195,-64.0869141
788,3940000,4240000,788,3306,10154,3431,-519,585,-1139,0.403564453,1.23950195,0.418823242,-31.6772461,35.7055664,-69.519043
789,3945008,4245008,789,3305,10285,3541,-568,630,-1228,0.403442383,1.25549316,0.432250977,-34.6679688,38.4521484,-74.9511719
790,3950000,4250000,790,3330,10428,3660,-621,670,-1319,0.406494141,1.27294922,0.446777344,-37.902832,40.8935547,-80.5053711
791,3955008,4255008,791,3405,10552,3774,-685,711,-1410,0.415649414,1.28808594,0.460693359,-41.809082,43.3959961,-86.0595703
792,3960000,4260000,792,3502,10602,3863,-754,759,-1503,0.427490234,1.29418945,0.471557617,-46.0205078,46.3256836,-91.7358398
793,3965008,4265008,793,3592,10590,3944,-820,815,-1600,0.438476562,1.29272461,0.481445312,-50.0488281,49.7436523,-97.65625
794,3970000,4270000,794,3686,10550,4029,-879,880,-1697,0.449951172,1.2878418,0.491821289,-53.6499023,53.7109375,-103.57666
795,3975008,4275008,795,3778,10504,4113,-930,953,-1795,0.461181641,1.28222656,0.502075195,-56.7626953,58.1665039,-109.558105
796,3980000,4280000,796,3862,10460,4181,-974,1030,-1891,0.471435547,1.27685547,0.510375977,-59.4482422,62.8662109,-115.41748
797,3985008,4285008,797,3969,10400,4248,-1004,1107,-1987,0.48449707,1.26953125,0.518554688,-61.2792969,67.565918,-121.276855
798,3990000,4290000,798,4067,10327,4350,-1026,1185,-2078,0.496459961,1.26062012,0.531005859,-62.6220703,72.3266602,-126.831055
799,3995008,4295008,799,4117,10299,4493,-1046,1264,-2170,0.502563477,1.25720215,0.548461914,-63.8427734,77.1484375,-132.446289
800,4000000,4300000,800,4164,10331,4685,-1071,1344,-2268,0.508300781,1.2611084,0.571899414,-65.3686523,82.03125,-138.427734
801,4005008,4305008,801,4210,10340,4883,-1100,1424,-2361,0.513916016,1.26220703,0.596069336,-67.1386719,86.9140625,-144.104004
802,4010000,4310000,802,4201,10276,5039,-1133,1496,-2440,0.512817383,1.25439453,0.615112305,-69.152832,91.3085938,-148.925781
803,4015008,4315008,803,4127,10159,5129,-1167,1557,-2502,0.50378418,1.2401123,0.626098633,-71.2280273,95.0317383,-152.709961
804,4020000,4320000,804,4039,10010,5174,-1200,1610,-2556,0.493041992,1.22192383,0.631591797,-73.2421875,98.2666016,-156.005859
805,4025008,4325008,805,3957,9861,5193,-1226,1665,-2606,0.483032227,1.20373535,0.633911133,-74.8291016,101.623535,-159.057617
806,4030000,4330000,806,3869,9733,5182,-1231,1722,-2648,0.472290039,1.18811035,0.632568359,-75.1342773,105.102539,-161.621094
807,4035008,4335008,807,3806,9601,5164,-1209,1783,-2681,0.464599609,1.17199707,0.630371094,-73.7915039,108.825684,-163.635254
808,4040000,4340000,808,3752,9465,5167,-1169,1845,-2701,0.458007812,1.15539551,0.630737305,-71.3500977,112.609863,-164.855957
809,4045008,4345008,809,3704,9390,5190,-1122,1909,-2716,0.452148438,1.14624023,0.633544922,-68.4814453,116.516113,-165.771484
810,4050000,4350000,810,3668,9386,5149,-1066,1979,-2724,0.447753906,1.14575195,0.628540039,-65.0634766,120.788574,-166.259766
811,4055008,4355008,811,3614,9371,5041,-1006,2039,-2722,0.441162109,1.1439209,0.615356445,-61.4013672,124.450684,-166.137695
812,4060000,4360000,812,3541,9275,4942,-963,2087,-2714,0.432250977,1.13220215,0.603271484,-58.7768555,127.380371,-165.649414
813,4065008,4365008,813,3413,9116,4884,-937,2139,-2706,0.416625977,1.11279297,0.596191406,-57.1899414,130.554199,-165.161133
814,4070000,4370000,814,3249,8968,4923,-914,2197,-2711,0.396606445,1.09472656,0.600952148,-55.7861328,134.094238,-165.466309
815,4075008,4375008,815,3099,8874,5025,-880,2262,-2731,0.378295898,1.08325195,0.61340332,-53.7109375,138.061523,-166.687012
816,4080000,4380000,816,2946,8853,5115,-837,2323,-2757,0.359619141,1.08068848,0.624389648,-51.0864258,141.784668,-168.273926
817,4085008,4385008,817,2797,8923,5178,-805,2375,-2788,0.341430664,1.0892334,0.632080078,-49.1333008,144.958496,-170.166016
818,4090000,4390000,818,2652,9059,5242,-792,2419,-2822,0.323730469,1.10583496,0.639892578,-48.3398438,147.644043,-172.241211
819,4095008,4395008,819,2461,9209,5339,-798,2459,-2858,0.300415039,1.12414551,0.651733398,-48.7060547,150.085449,-174.438477
820,4100000,4400000,820,2177,9261,5435,-818,2493,-2886,0.26574707,1.13049316,0.663452148,-49.9267578,152.160645,-176.147461
821,4105008,4405008,821,1817,9146,5505,-842,2515,-2898,0.221801758,1.11645508,0.67199707,-51.3916016,153.503418,-176.879883
822,4110000,4410000,822,1412,8960,5617,-865,2527,-2901,0.172363281,1.09375,0.685668945,-52.7954102,154.23584,-177.062988
823,4115008,4415008,823,1010,8875,5669,-886,2537,-2908,0.123291016,1.08337402,0.692016602,-54.0771484,154.846191,-177.490234
824,4120000,4420000,824,733,8848,5581,-899,2534,-2915,0.0894775391,1.08007812,0.681274414,-54.8706055,154.663086,-177.91748
825,4125008,4425008,825,581,8739,5490,-911,2517,-2902,0.0709228516,1.06677246,0.670166016,-55.6030273,153.625488,-177.124023
826,4130000,4430000,826,438,8586,5450,-927,2511,-2876,0.0534667969,1.0480957,0.665283203,-56.5795898,153.259277,-175.537109
827,4135008,4435008,827,257,8427,5355,-931,2524,-2856,0.0313720703,1.02868652,0.653686523,-56.8237305,154.052734,-174.316406
828,4140000,4440000,828,100,8237,5153,-912,2533,-2846,0.0122070312,1.00549316,0.62902832,-55.6640625,154.602051,-173.706055
829,4145008,4445008,829,-13,8050,4950,-883,2534,-2835,-0.00158691406,0.982666016,0.604248047,-53.894043,154.663086,-173.034668
830,4150000,4450000,830,-144,7923,4832,-847,2552,-2826,-0.017578125,0.967163086,0.58984375,-51.6967773,155.761719,-172.485352
831,4155008,4455008,831,-291,7813,4811,-795,2589,-2829,-0.0355224609,0.953735352,0.587280273,-48.5229492,158.02002,-172.668457
832,4160000,4460000,832,-413,7626,4791,-730,2628,-2837,-0.0504150391,0.930908203,0.584838867,-44.5556641,160.400391,-173.156738
833,4165008,4465008,833,-515,7386,4693,-663,2657,-2838,-0.0628662109,0.901611328,0.572875977,-40.4663086,162.17041,-173.217773
834,4170000,4470000,834,-625,7248,4546,-593,2684,-2840,-0.0762939453,0.884765625,0.554931641,-36.1938477,163.818359,-173.339844
835,4175008,4475008,835,-688,7203,4368,-519,2714,-2846,-0.083984375,0.879272461,0.533203125,-31.6772461,165.649414,-173.706055
836,4180000,4480000,836,-682,7072,4158,-443,2743,-2838,-0.0832519531,0.86328125,0.507568359,-27.0385742,167.419434,-173.217773
837,4185008,4485008,837,-710,6836,3940,-375,2765,-2817,-0.0866699219,0.834472656,0.480957031,-22.8881836,168.762207,-171.936035
838,4190000,4490000,838,-844,6635,3807,-317,2786,-2802,-0.103027344,0.809936523,0.46472168,-19.3481445,170.043945,-171.020508
839,4195008,4495008,839,-1043,6570,3798,-258,2822,-2806,-0.127319336,0.802001953,0.463623047,-15.7470703,172.241211,-171.264648
840,4200000,4500000,840,-1216,6576,3772,-189,2865,-2816,-0.1484375,0.802734375,0.460449219,-11.5356445,174.865723,-171.875
841,4205008,4505008,841,-1342,6553,3671,-118,2887,-2809,-0.163818359,0.799926758,0.448120117,-7.20214844,176.208496,-171.447754
842,4210000,4510000,842,-1473,6487,3555,-63,2892,-2784,-0.17980957,0.791870117,0.433959961,-3.84521484,176.513672,-169.921875
843,4215008,4515008,843,-1702,6337,3412,-19,2900,-2760,-0.207763672,0.77355957,0.416503906,-1.15966797,177.001953,-168.457031
844,4220000,4520000,844,-1875,6059,3123,35,2899,-2733,-0.228881836,0.739624023,0.381225586,2.13623047,176.940918,-166.809082
845,4225008,4525008,845,-1956,5810,2807,89,2871,-2692,-0.238769531,0.709228516,0.342651367,5.43212891,175.231934,-164.306641
846,4230000,4530000,846,-2087,5671,2602,127,2854,-2650,-0.254760742,0.692260742,0.317626953,7.75146484,174.194336,-161.743164
847,4235008,4535008,847,-2280,5559,2473,159,2851,-2616,-0.278320312,0.678588867,0.301879883,9.70458984,174.01123,-159.667969
848,4240000,4540000,848,-2554,5457,2407,182,2837,-2581,-0.311767578,0.666137695,0.293823242,11.1083984,173.156738,-157.531738
849,4245008,4545008,849,-2880,5352,2320,191,2819,-2562,-0.3515625,0.653320312,0.283203125,11.6577148,172.058105,-156.37207
850,4250000,4550000,850,-3180,5154,2137,191,2790,-2555,-0.388183594,0.629150391,0.260864258,11.6577148,170.288086,-155.944824
851,4255008,4555008,851,-3413,4852,1842,192,2746,-2537,-0.416625977,0.592285156,0.224853516,11.71875,167.602539,-154.846191
852,4260000,4560000,852,-3663,4550,1528,200,2704,-2519,-0.447143555,0.555419922,0.186523438,12.2070312,165.039062,-153.747559
853,4265008,4565008,853,-3879,4207,1220,209,2673,-2506,-0.473510742,0.513549805,0.148925781,12.7563477,163.146973,-152.954102
854,4270000,4570000,854,-4086,3898,907,224,2649,-2496,-0.498779297,0.475830078,0.110717773,13.671875,161.682129,-152.34375
855,4275008,4575008,855,-4263,3647,664,251,2628,-2482,-0.520385742,0.44519043,0.0810546875,15.3198242,160.400391,-151.489258
856,4280000,4580000,856,-4367,3411,550,301,2612,-2448,-0.533081055,0.416381836,0.0671386719,18.371582,159.423828,-149.414062
857,4285008,4585008,857,-4466,3224,558,363,2594,-2395,-0.545166016,0.393554688,0.0681152344,22.1557617,158.325195,-146.179199
858,4290000,4590000,858,-4550,3061,560,424,2561,-2335,-0.555419922,0.373657227,0.068359375,25.8789062,156.311035,-142.51709
859,4295008,4595008,859,-4680,2980,548,486,2520,-2282,-0.571289062,0.363769531,0.0668945312,29.6630859,153.808594,-139.282227
860,4300000,4600000,860,-4849,2998,569,528,2482,-2239,-0.591918945,0.365966797,0.0694580078,32.2265625,151.489258,-136.657715
861,4305008,4605008,861,-4996,3069,516,537,2437,-2202,-0.609863281,0.374633789,0.0629882812,32.7758789,148.742676,-134.399414
862,4310000,4610000,862,-5085,3086,419,521,2374,-2167,-0.620727539,0.376708984,0.0511474609,31.7993164,144.897461,-132.263184
863,4315008,4615008,863,-5148,3060,449,471,2303,-2135,-0.628417969,0.373535156,0.0548095703,28.7475586,140.563965,-130.310059
864,4320000,4620000,864,-5276,3135,592,383,2247,-2124,-0.644042969,0.38269043,0.072265625,23.3764648,137.145996,-129.638672
865,4325008,4625008,865,-5395,3297,745,285,2211,-2135,-0.658569336,0.40246582,0.0909423828,17.3950195,134.94873,-130.310059
866,4330000,4630000,866,-5427,3338,791,196,2179,-2146,-0.662475586,0.407470703,0.0965576172,11.9628906,132.995605,-130.981445
867,4335008,4635008,867,-5475,3186,688,104,2141,-2141,-0.668334961,0.388916016,0.083984375,6.34765625,130.67627,-130.67627
868,4340000,4640000,868,-5460,2946,410,5,2085,-2117,-0.666503906,0.359619141,0.0500488281,0.305175781,127.258301,-129.211426
869,4345008,4645008,869,-5354,2719,87,-80,2018,-2076,-0.653564453,0.33190918,0.0106201172,-4.8828125,123.168945,-126.708984
870,4350000,4650000,870,-5258,2478,-134,-129,1971,-2024,-0.641845703,0.302490234,-0.0163574219,-7.87353516,120.300293,-123.535156
871,4355008,4655008,871,-5160,2239,-313,-125,1930,-1952,-0.629882812,0.27331543,-0.0382080078,-7.62939453,117.797852,-119.140625
872,4360000,4660000,872,-5188,2083,-399,-87,1901,-1876,-0.633300781,0.254272461,-0.0487060547,-5.31005859,116.027832,-114.501953
873,4365008,4665008,873,-5358,1922,-438,-41,1898,-1823,-0.654052734,0.234619141,-0.0534667969,-2.50244141,115.844727,-111.26709
874,4370000,4670000,874,-5494,1726,-517,19,1884,-1773,-0.670654297,0.210693359,-0.0631103516,1.15966797,114.990234,-108.215332
875,4375008,4675008,875,-5559,1588,-653,104,1865,-1721,-0.678588867,0.193847656,-0.0797119141,6.34765625,113.830566,-105.041504
876,4380000,4680000,876,-5613,1499,-789,206,1859,-1678,-0.685180664,0.182983398,-0.0963134766,12.5732422,113.464355,-102.416992
877,4385008,4685008,877,-5670,1417,-848,288,1860,-1642,-0.692138672,0.172973633,-0.103515625,17.578125,113.525391,-100.219727
878,4390000,4690000,878,-5700,1389,-871,338,1850,-1606,-0.695800781,0.169555664,-0.106323242,20.6298828,112.915039,-98.0224609
879,4395008,4695008,879,-5708,1456,-791,363,1821,-1564,-0.696777344,0.177734375,-0.0965576172,22.1557617,111.14502,-95.4589844
880,4400000,4700000,880,-5715,1658,-602,358,1785,-1526,-0.697631836,0.202392578,-0.0734863281,21.8505859,108.947754,-93.1396484
881,4405008,4705008,881,-5738,1818,-437,330,1748,-1497,-0.700439453,0.221923828,-0.0533447266,20.1416016,106.689453,-91.3696289
882,4410000,4710000,882,-5853,1806,-385,282,1708,-1469,-0.714477539,0.220458984,-0.0469970703,17.2119141,104.248047,-89.6606445
883,4415008,4715008,883,-5985,1697,-548,211,1658,-1443,-0.73059082,0.20715332,-0.0668945312,12.878418,101.196289,-88.0737305
884,4420000,4720000,884,-6069,1565,-755,126,1594,-1408,-0.740844727,0.191040039,-0.0921630859,7.69042969,97.2900391,-85.9375
885,4425008,4725008,885,-6196,1487,-772,31,1535,-1364,-0.756347656,0.181518555,-0.0942382812,1.89208984,93.6889648,-83.2519531
886,4430000,4730000,886,-6310,1445,-704,-52,1487,-1323,-0.770263672,0.176391602,-0.0859375,-3.17382812,90.7592773,-80.7495117
887,4435008,4735008,887,-6349,1371,-672,-103,1441,-1273,-0.775024414,0.167358398,-0.08203125,-6.28662109,87.9516602,-77.6977539
888,4440000,4740000,888,-6425,1246,-667,-145,1395,-1227,-0.784301758,0.152099609,-0.0814208984,-8.85009766,85.144043,-74.8901367
889,4445008,4745008,889,-6544,1099,-731,-186,1348,-1187,-0.798828125,0.134155273,-0.0892333984,-11.3525391,82.2753906,-72.4487305
890,4450000,4750000,890,-6607,987,-920,-199,1309,-1145,-0.806518555,0.120483398,-0.112304688,-12.1459961,79.8950195,-69.8852539
891,4455008,4755008,891,-6586,875,-1216,-177,1269,-1100,-0.803955078,0.106811523,-0.1484375,-10.8032227,77.4536133,-67.1386719
892,4460000,4760000,892,-6566,726,-1492,-143,1233,-1056,-0.801513672,0.0886230469,-0.182128906,-8.72802734,75.2563477,-64.453125
893,4465008,4765008,893,-6572,592,-1722,-97,1207,-1010,-0.802246094,0.072265625,-0.210205078,-5.92041016,73.6694336,-61.6455078
894,4470000,4770000,894,-6588,536,-1857,-31,1184,-958,-0.804199219,0.0654296875,-0.22668457,-1.89208984,72.265625,-58.4716797
895,4475008,4775008,895,-6631,553,-1841,39,1171,-911,-0.809448242,0.0675048828,-0.224731445,2.38037109,71.472168,-55.6030273
896,4480000,4780000,896,-6687,630,-1766,95,1154,-872,-0.81628418,0.0769042969,-0.215576172,5.79833984,70.4345703,-53.2226562
897,4485008,4785008,897,-6752,790,-1696,131,1133,-842,-0.82421875,0.0964355469,-0.20703125,7.99560547,69.152832,-51.3916016
898,4490000,4790000,898,-6825,939,-1662,149,1105,-811,-0.833129883,0.114624023,-0.202880859,9.09423828,67.4438477,-49.4995117
899,4495008,4795008,899,-6899,1038,-1622,150,1059,-770,-0.842163086,0.126708984,-0.197998047,9.15527344,64.6362305,-46.9970703
900,4500000,4800000,900,-6970,1157,-1510,134,1005,-727,-0.850830078,0.141235352,-0.184326172,8.17871094,61.340332,-44.3725586
901,4505008,4805008,901,-7042,1235,-1406,104,959,-692,-0.859619141,0.150756836,-0.171630859,6.34765625,58.5327148,-42.2363281
902,4510000,4810000,902,-7114,1234,-1364,71,915,-663,-0.868408203,0.150634766,-0.166503906,4.33349609,55.847168,-40.4663086
903,4515008,4815008,903,-7212,1244,-1310,29,867,-640,-0.880371094,0.151855469,-0.159912109,1.77001953,52.9174805,-39.0625
904,4520000,4820000,904,-7262,1267,-1327,-20,817,-627,-0.886474609,0.154663086,-0.161987305,-1.22070312,49.8657227,-38.269043
905,4525008,4825008,905,-7279,1267,-1386,-67,771,-608,-0.888549805,0.154663086,-0.169189453,-4.08935547,47.0581055,-37.109375
906,4530000,4830000,906,-7286,1244,-1458,-104,723,-574,-0.889404297,0.151855469,-0.177978516,-6.34765625,44.128418,-35.0341797
907,4535008,4835008,907,-7203,1222,-1485,-129,680,-545,-0.879272461,0.149169922,-0.181274414,-7.87353516,41.5039062,-33.2641602
908,4540000,4840000,908,-7084,1150,-1532,-141,647,-517,-0.864746094,0.140380859,-0.187011719,-8.60595703,39.4897461,-31.5551758
909,4545008,4845008,909,-7001,1003,-1782,-132,613,-476,-0.854614258,0.122436523,-0.217529297,-8.05664062,37.4145508,-29.0527344
910,4550000,4850000,910,-6957,842,-2072,-100,585,-431,-0.849243164,0.102783203,-0.252929688,-6.10351562,35.7055664,-26.3061523
911,4555008,4855008,911,-6912,685,-2268,-40,567,-385,-0.84375,0.0836181641,-0.276855469,-2.44140625,34.6069336,-23.4985352
912,4560000,4860000,912,-6847,564,-2400,46,555,-343,-0.83581543,0.0688476562,-0.29296875,2.80761719,33.8745117,-20.9350586
913,4565008,4865008,913,-6719,488,-2520,143,548,-299,-0.82019043,0.0595703125,-0.307617188,8.72802734,33.4472656,-18.2495117
914,4570000,4870000,914,-6537,443,-2616,232,533,-244,-0.797973633,0.0540771484,-0.319335938,14.1601562,32.5317383,-14.8925781
915,4575008,4875008,915,-6486,470,-2655,298,515,-189,-0.791748047,0.0573730469,-0.32409668,18.1884766,31.4331055,-11.5356445
916,4580000,4880000,916,-6544,564,-2680,336,502,-156,-0.798828125,0.0688476562,-0.327148438,20.5078125,30.6396484,-9.52148438
917,4585008,4885008,917,-6550,667,-2660,355,482,-127,-0.799560547,0.0814208984,-0.324707031,21.6674805,29.4189453,-7.75146484
918,4590000,4890000,918,-6556,768,-2530,356,448,-84,-0.800292969,0.09375,-0.308837891,21.7285156,27.34375,-5.12695312
919,4595008,4895008,919,-6595,892,-2364,322,392,-40,-0.805053711,0.108886719,-0.288574219,19.6533203,23.9257812,-2.44140625
920,4600000,4900000,920,-6686,1023,-2207,243,326,-11,-0.816162109,0.12487793,-0.26940918,14.831543,19.8974609,-0.671386719
921,4605008,4905008,921,-6771,1112,-2116,136,255,7,-0.826538086,0.135742188,-0.258300781,8.30078125,15.5639648,0.427246094
922,4610000,4910000,922,-6833,1125,-2053,23,177,34,-0.834106445,0.137329102,-0.250610352,1.40380859,10.8032227,2.07519531
923,4615008,4915008,923,-6922,1060,-1998,-83,101,70,-0.844970703,0.129394531,-0.243896484,-5.06591797,6.16455078,4.27246094
924,4620000,4920000,924,-6998,911,-2032,-176,26,110,-0.854248047,0.111206055,-0.248046875,-10.7421875,1.58691406,6.71386719
925,4625008,4925008,925,-6976,703,-2203,-247,-55,158,-0.8515625,0.0858154297,-0.268920898,-15.0756836,-3.35693359,9.64355469
926,4630000,4930000,926,-6881,492,-2461,-285,-138,217,-0.83996582,0.0600585938,-0.300415039,-17.3950195,-8.42285156,13.2446289
927,4635008,4935008,927,-6869,271,-2697,-288,-202,269,-0.838500977,0.0330810547,-0.329223633,-17.578125,-12.3291016,16.418457
928,4640000,4940000,928,-6875,73,-2924,-264,-245,310,-0.839233398,0.00891113281,-0.356933594,-16.1132812,-14.9536133,18.9208984
929,4645008,4945008,929,-6745,-94,-3177,-216,-289,357,-0.823364258,-0.0114746094,-0.387817383,-13.1835938,-17.6391602,21.7895508
930,4650000,4950000,930,-6601,-204,-3378,-149,-342,423,-0.805786133,-0.0249023438,-0.412353516,-9.09423828,-20.8740234,25.8178711
931,4655008,4955008,931,-6556,-226,-3453,-72,-391,493,-0.800292969,-0.0275878906,-0.421508789,-4.39453125,-23.8647461,30.090332
932,4660000,4960000,932,-6548,-218,-3455,11,-436,563,-0.799316406,-0.0266113281,-0.42175293,0.671386719,-26.6113281,34.362793
933,4665008,4965008,933,-6580,-176,-3441,94,-485,630,-0.803222656,-0.021484375,-0.420043945,5.73730469,-29.6020508,38.4521484
934,4670000,4970000,934,-6601,-141,-3444,166,-538,697,-0.805786133,-0.0172119141,-0.420410156,10.1318359,-32.8369141,42.5415039
935,4675008,4975008,935,-6576,-125,-3495,226,-593,769,-0.802734375,-0.0152587891,-0.426635742,13.7939453,-36.1938477,46.9360352
936,4680000,4980000,936,-6540,-126,-3578,275,-649,844,-0.798339844,-0.0153808594,-0.436767578,16.784668,-39.6118164,51.5136719
937,4685008,4985008,937,-6479,-164,-3669,310,-708,923,-0.790893555,-0.0200195312,-0.447875977,18.9208984,-43.2128906,56.3354492
938,4690000,4990000,938,-6409,-215,-3748,327,-771,1007,-0.782348633,-0.0262451172,-0.457519531,19.9584961,-47.0581055,61.4624023
939,4695008,4995008,939,-6324,-274,-3797,327,-837,1089,-0.771972656,-0.0334472656,-0.463500977,19.9584961,-51.0864258,66.4672852
940,4700000,5000000,940,-6209,-395,-3873,317,-908,1171,-0.75793457,-0.0482177734,-0.47277832,19.3481445,-55.4199219,71.472168
941,4705008,5005008,941,-6117,-553,-3943,312,-985,1253,-0.746704102,-0.0675048828,-0.481323242,19.0429688,-60.1196289,76.4770508
942,4710000,5010000,942,-6038,-671,-3977,311,-1061,1331,-0.737060547,-0.0819091797,-0.485473633,18.9819336,-64.7583008,81.237793
943,4715008,5015008,943,-5953,-744,-4004,301,-1136,1402,-0.72668457,-0.0908203125,-0.488769531,18.371582,-69.3359375,85.5712891
944,4720000,5020000,944,-5889,-807,-4009,283,-1209,1470,-0.71887207,-0.0985107422,-0.489379883,17.2729492,-73.7915039,89.7216797
945,4725008,5025008,945,-5850,-887,-4020,271,-1284,1540,-0.714111328,-0.108276367,-0.490722656,16.5405273,-78.3691406,93.9941406
946,4730000,5030000,946,-5804,-945,-3977,279,-1360,1612,-0.708496094,-0.115356445,-0.485473633,17.0288086,-83.0078125,98.3886719
947,4735008,5035008,947,-5770,-868,-3719,291,-1434,1687,-0.704345703,-0.105957031,-0.453979492,17.7612305,-87.5244141,102.966309
948,4740000,5040000,948,-5828,-514,-3256,297,-1502,1757,-0.711425781,-0.0627441406,-0.397460938,18.1274414,-91.6748047,107.23877
949,4745008,5045008,949,-5954,69,-2661,326,-1558,1812,-0.726806641,0.00842285156,-0.324829102,19.8974609,-95.0927734,110.595703
950,4750000,5050000,950,-6048,668,-1971,381,-1613,1859,-0.73828125,0.0815429688,-0.240600586,23.2543945,-98.449707,113.464355
951,4755008,5055008,951,-6177,1190,-1345,423,-1673,1912,-0.75402832,0.145263672,-0.16418457,25.8178711,-102.111816,116.699219
952,4760000,5060000,952,-6360,1633,-987,421,-1743,1974,-0.776367188,0.19934082,-0.120483398,25.6958008,-106.384277,120.483398
953,4765008,5065008,953,-6480,1991,-925,376,-1834,2042,-0.791015625,0.243041992,-0.112915039,22.9492188,-111.938477,124.633789
954,4770000,5070000,954,-6546,2291,-959,314,-1959,2110,-0.799072266,0.279663086,-0.11706543,19.1650391,-119.567871,128.78418
955,4775008,5075008,955,-6551,2495,-917,240,-2072,2178,-0.799682617,0.30456543,-0.111938477,14.6484375,-126.464844,132.93457
956,4780000,5080000,956,-6531,2628,-787,155,-2142,2240,-0.797241211,0.320800781,-0.0960693359,9.46044922,-130.737305,136.71875
957,4785008,5085008,957,-6401,2700,-903,75,-2208,2300,-0.78137207,0.329589844,-0.110229492,4.57763672,-134.765625,140.380859
958,4790000,5090000,958,-6155,2699,-1266,13,-2289,2370,-0.751342773,0.329467773,-0.154541016,0.793457031,-139.709473,144.65332
959,4795008,5095008,959,-5958,2625,-1546,-20,-2377,2452,-0.727294922,0.32043457,-0.188720703,-1.22070312,-145.080566,149.658203
960,4800000,5100000,960,-5811,2472,-1776,-38,-2453,2533,-0.709350586,0.301757812,-0.216796875,-2.31933594,-149.719238,154.602051
961,4805008,5105008,961,-5585,2239,-1969,-54,-2507,2594,-0.681762695,0.27331543,-0.240356445,-3.29589844,-153.015137,158.325195
962,4810000,5110000,962,-5278,1921,-2206,-82,-2543,2641,-0.644287109,0.23449707,-0.269287109,-5.00488281,-155.212402,161.193848
963,4815008,5115008,963,-4988,1589,-2363,-130,-2570,2679,-0.608886719,0.193969727,-0.288452148,-7.93457031,-156.860352,163.513184
964,4820000,5120000,964,-4772,1306,-2277,-150,-2583,2706,-0.582519531,0.159423828,-0.277954102,-9.15527344,-157.653809,165.161133
