sample_index,offset_us,timestamp_us,quat_i,quat_j,quat_k,quat_real,linear_accel_x_mps2,linear_accel_y_mps2,linear_accel_z_mps2,gravity_x_mps2,gravity_y_mps2,gravity_z_mps2,gyro_x_radps,gyro_y_radps,gyro_z_radps
0,17885,317885,0.201782227,0.861816406,-0.441589355,0.14666748,0.3359375,0.2265625,0.29296875,-3.3671875,-6.828125,-5.75,0.00390625,-1.23632812,0.376953125
1,30514,330514,0.201171875,0.861694336,-0.441589355,0.14831543,0.3359375,0.2265625,0.29296875,-3.3671875,-6.828125,-5.75,-0.068359375,-0.271484375,0.015625
2,30562,330562,0.200561523,0.861694336,-0.44152832,0.149230957,0.796875,0.12109375,0.32421875,-4.1328125,-6.6875,-5.3984375,-0.068359375,-0.271484375,0.015625
3,30594,330594,0.199890137,0.861877441,-0.441345215,0.149658203,0.796875,0.12109375,0.32421875,-4.1328125,-6.6875,-5.3984375,-0.087890625,-0.07421875,-0.109375
4,30642,330642,0.199157715,0.862182617,-0.441101074,0.149658203,0.1171875,0.15234375,0.28515625,-4.140625,-6.6796875,-5.3984375,-0.087890625,-0.07421875,-0.109375
5,30674,330674,0.198364258,0.862609863,-0.440734863,0.149169922,0.1171875,0.15234375,0.28515625,-4.140625,-6.6796875,-5.3984375,-0.107421875,0.076171875,-0.1953125
6,30721,330721,0.197753906,0.863098145,-0.440368652,0.14831543,-0.0625,0.31640625,0.29296875,-4.1171875,-6.6875,-5.40625,-0.107421875,0.076171875,-0.1953125
7,30753,330753,0.19732666,0.863647461,-0.440002441,0.146789551,-0.0625,0.31640625,0.29296875,-4.1171875,-6.6875,-5.40625,-0.05078125,0.310546875,-0.20703125
8,43420,343420,0.208984375,0.878295898,-0.424926758,0.0656738281,-0.0625,0.31640625,0.29296875,-4.1171875,-6.6875,-5.40625,0.021484375,1.984375,-0.62890625
9,52492,352492,0.210571289,0.879638672,-0.422973633,0.0542602539,-0.0625,0.31640625,0.29296875,-4.1171875,-6.6875,-5.40625,0.044921875,2.20898438,-0.72265625
10,55501,355501,0.211975098,0.880859375,-0.421081543,0.0432128906,-0.57421875,0.1875,0.13671875,-2.609375,-6.8671875,-6.0546875,0.044921875,2.20898438,-0.72265625
11,70784,370784,0.213378906,0.882019043,-0.418945312,0.0307617188,-0.57421875,0.1875,0.13671875,-2.609375,-6.8671875,-6.0546875,0.076171875,2.328125,-0.83203125
12,77105,377105,0.214416504,0.883117676,-0.416870117,0.0185546875,-0.87890625,0.1953125,-0.10546875,-2.2265625,-6.9140625,-6.15625,0.076171875,2.328125,-0.83203125
13,91458,391458,0.215209961,0.884094238,-0.414733887,0.00671386719,-0.87890625,0.1953125,-0.10546875,-2.2265625,-6.9140625,-6.15625,0.033203125,2.38671875,-0.943359375
14,100048,400048,-0.216003418,-0.885070801,0.412231445,0.00592041016,-0.47265625,0.16015625,0.01953125,-1.828125,-6.953125,-6.2421875,0.033203125,2.38671875,-0.943359375
15,110284,410284,-0.21673584,-0.886047363,0.409301758,0.0192260742,-0.47265625,0.16015625,0.01953125,-1.828125,-6.953125,-6.2421875,-0.03515625,2.484375,-0.994140625
16,118553,418553,-0.217468262,-0.886901855,0.40625,0.0324707031,-0.421875,0.11328125,-0.1328125,-1.3828125,-6.984375,-6.3203125,-0.03515625,2.484375,-0.994140625
17,129885,429885,-0.218261719,-0.887573242,0.403137207,0.045715332,-0.421875,0.11328125,-0.1328125,-1.3828125,-6.984375,-6.3203125,-0.0234375,2.66601562,-1.0234375
18,137902,437902,-0.219055176,-0.888000488,0.399780273,0.0599975586,-0.5078125,0.015625,-0.4921875,-0.9140625,-7,-6.3828125,-0.0234375,2.66601562,-1.0234375
19,149786,449786,-0.219726562,-0.888305664,0.396484375,0.07421875,-0.5078125,0.015625,-0.4921875,-0.9140625,-7,-6.3828125,0.01171875,2.69726562,-1.08398438
20,155965,455965,-0.220092773,-0.888366699,0.393249512,0.0880737305,-0.8515625,0.03125,-0.53125,-0.4140625,-7.015625,-6.421875,0.01171875,2.69726562,-1.08398438
21,170399,470399,-0.220092773,-0.888366699,0.390075684,0.101196289,-0.8515625,0.03125,-0.53125,-0.4140625,-7.015625,-6.421875,-0.001953125,2.48242188,-1.11914062
22,179863,479863,-0.219909668,-0.888366699,0.386474609,0.114379883,-0.36328125,0.18359375,0.12890625,0.0546875,-7.015625,-6.4296875,-0.001953125,2.48242188,-1.11914062
23,188750,488750,-0.219604492,-0.888366699,0.3828125,0.12677002,-0.36328125,0.18359375,0.12890625,0.0546875,-7.015625,-6.4296875,-0.123046875,2.29296875,-1.06054688
24,196477,496477,-0.219421387,-0.888244629,0.379089355,0.13861084,0.23828125,-0.0625,-0.37890625,0.5234375,-7,-6.421875,-0.123046875,2.29296875,-1.06054688
25,209032,509032,-0.219360352,-0.887878418,0.375549316,0.150024414,0.23828125,-0.0625,-0.37890625,0.5234375,-7,-6.421875,-0.0703125,2.3125,-0.982421875
26,217139,517139,-0.219482422,-0.887145996,0.371948242,0.162597656,0.4296875,-0.0546875,-0.77734375,0.9453125,-6.96875,-6.40625,-0.0703125,2.3125,-0.982421875
27,229080,529080,-0.219604492,-0.886108398,0.368774414,0.174865723,0.4296875,-0.0546875,-0.77734375,0.9453125,-6.96875,-6.40625,0.078125,2.33203125,-0.916015625
28,235266,535266,-0.219726562,-0.884765625,0.366088867,0.186767578,-0.3125,-0.38671875,-1.03125,1.3828125,-6.9453125,-6.34375,0.078125,2.33203125,-0.916015625
29,250343,550343,-0.219604492,-0.883239746,0.363952637,0.197937012,-0.3125,-0.38671875,-1.03125,1.3828125,-6.9453125,-6.34375,0.29296875,2.18164062,-0.91015625
30,256883,556883,-0.218933105,-0.881591797,0.362060547,0.209289551,-0.75,-0.46875,-0.39453125,1.78125,-6.9375,-6.25,0.29296875,2.18164062,-0.91015625
31,268054,568054,-0.217712402,-0.879943848,0.360046387,0.22052002,-0.75,-0.46875,-0.39453125,1.78125,-6.9375,-6.25,0.259765625,1.89648438,-1.0390625
32,275471,575471,-0.216125488,-0.878723145,0.357666016,0.230773926,-0.60546875,-0.00390625,-0.09765625,2.171875,-6.9453125,-6.125,0.259765625,1.89648438,-1.0390625
33,287140,587140,-0.214477539,-0.877685547,0.354736328,0.24041748,-0.60546875,-0.00390625,-0.09765625,2.171875,-6.9453125,-6.125,-0.009765625,1.6796875,-1.046875
34,296538,596538,-0.21307373,-0.87689209,0.35168457,0.248840332,-0.0078125,0.41796875,0.02734375,2.53125,-6.90625,-6.0234375,-0.009765625,1.6796875,-1.046875
35,307825,607825,-0.211730957,-0.876098633,0.348571777,0.257141113,-0.0078125,0.41796875,0.02734375,2.53125,-6.90625,-6.0234375,-0.0546875,1.41992188,-0.84765625
36,315135,615135,-0.210693359,-0.875061035,0.346130371,0.264648438,0.36328125,-0.09765625,-0.38671875,2.8515625,-6.8515625,-5.953125,-0.0546875,1.41992188,-0.84765625
37,327749,627749,-0.209716797,-0.873657227,0.344543457,0.272155762,0.36328125,-0.09765625,-0.38671875,2.8515625,-6.8515625,-5.953125,0.298828125,1.43554688,-0.6953125
38,335489,635489,-0.208557129,-0.871765137,0.343811035,0.279907227,0.94140625,-0.328125,-0.296875,3.1171875,-6.8125,-5.8515625,0.298828125,1.43554688,-0.6953125
39,350430,650430,-0.207214355,-0.869934082,0.343322754,0.28704834,0.94140625,-0.328125,-0.296875,3.1171875,-6.8125,-5.8515625,0.400390625,1.25390625,-0.69921875
40,359570,659570,-0.205749512,-0.868347168,0.342590332,0.293701172,0.73828125,0.33203125,0.296875,3.359375,-6.8203125,-5.71875,0.400390625,1.25390625,-0.69921875
41,367246,667246,-0.204101562,-0.866882324,0.341308594,0.300537109,0.73828125,0.33203125,0.296875,3.359375,-6.8203125,-5.71875,0.212890625,1.09570312,-0.697265625
42,375783,675783,-0.202819824,-0.865783691,0.340026855,0.306091309,0.76171875,0.46875,0.48828125,3.6015625,-6.8046875,-5.6015625,0.212890625,1.09570312,-0.697265625
43,387484,687484,-0.201416016,-0.864624023,0.338500977,0.311828613,0.76171875,0.46875,0.48828125,3.6015625,-6.8046875,-5.6015625,0.146484375,0.958984375,-0.619140625
44,394225,694225,-0.200195312,-0.863525391,0.337341309,0.316894531,0.7578125,-0.3359375,0.078125,3.796875,-6.765625,-5.5,0.146484375,0.958984375,-0.619140625
45,407972,707972,-0.198913574,-0.862426758,0.336242676,0.321838379,0.7578125,-0.3359375,0.078125,3.796875,-6.765625,-5.5,0.15625,0.8828125,-0.57421875
46,415465,715465,-0.197814941,-0.861328125,0.335021973,0.326782227,0.46484375,-0.43359375,-0.3125,3.9765625,-6.7421875,-5.4140625,0.15625,0.8828125,-0.57421875
47,427169,727169,-0.196899414,-0.860046387,0.333557129,0.33215332,0.46484375,-0.43359375,-0.3125,3.9765625,-6.7421875,-5.4140625,0.09375,1.08007812,-0.548828125
48,434474,734474,-0.196228027,-0.858581543,0.33203125,0.337768555,0.78125,-0.50390625,0.58984375,4.15625,-6.7109375,-5.3203125,0.09375,1.08007812,-0.548828125
49,446296,746296,-0.195251465,-0.857055664,0.330383301,0.34375,0.78125,-0.50390625,0.58984375,4.15625,-6.7109375,-5.3203125,0.119140625,1.05273438,-0.626953125
50,454493,754493,-0.194030762,-0.855957031,0.328735352,0.348693848,0.35546875,0.26171875,0.78515625,4.3515625,-6.671875,-5.2109375,0.119140625,1.05273438,-0.626953125
51,467585,767585,-0.192626953,-0.855285645,0.326660156,0.353149414,0.35546875,0.26171875,0.78515625,4.3515625,-6.671875,-5.2109375,-0.08203125,0.68359375,-0.6171875
52,473194,773194,-0.19140625,-0.854919434,0.324584961,0.356506348,0.1484375,0.85546875,0.2109375,4.5234375,-6.6171875,-5.1328125,-0.08203125,0.68359375,-0.6171875
53,487266,787266,-0.190429688,-0.854675293,0.32220459,0.359741211,0.1484375,0.85546875,0.2109375,4.5234375,-6.6171875,-5.1328125,-0.1796875,0.548828125,-0.4609375
54,494493,794493,-0.189819336,-0.854370117,0.320251465,0.362609863,0.47265625,-0.09375,-0.35546875,4.65625,-6.546875,-5.1015625,-0.1796875,0.548828125,-0.4609375
55,508029,808029,-0.189331055,-0.853759766,0.318603516,0.365661621,0.47265625,-0.09375,-0.35546875,4.65625,-6.546875,-5.1015625,-0.052734375,0.640625,-0.380859375
56,515462,815462,-0.188781738,-0.852966309,0.317321777,0.369018555,0.32421875,-0.9453125,-0.43359375,4.765625,-6.5,-5.0625,-0.052734375,0.640625,-0.380859375
57,528027,828027,-0.187988281,-0.851928711,0.316162109,0.372741699,0.32421875,-0.9453125,-0.43359375,4.765625,-6.5,-5.0625,0.10546875,0.72265625,-0.427734375
58,538231,838231,-0.187072754,-0.850830078,0.315063477,0.376586914,-0.01953125,-0.6328125,-0.4296875,4.8828125,-6.46875,-4.9921875,0.10546875,0.72265625,-0.427734375
59,548456,848456,-0.186218262,-0.850036621,0.313842773,0.379821777,-0.01953125,-0.6328125,-0.4296875,4.8828125,-6.46875,-4.9921875,-0.02734375,0.546875,-0.3984375
60,553130,853130,-0.185424805,-0.84954834,0.312255859,0.382507324,-0.22265625,0.1328125,-0.0390625,5.0078125,-6.4296875,-4.921875,-0.02734375,0.546875,-0.3984375
61,568260,868260,-0.184814453,-0.849365234,0.31048584,0.38482666,-0.22265625,0.1328125,-0.0390625,5.0078125,-6.4296875,-4.921875,-0.20703125,0.423828125,-0.38671875
62,574186,874186,-0.184387207,-0.849182129,0.308410645,0.386962891,0.18359375,0.23046875,-0.23046875,5.1015625,-6.375,-4.8828125,-0.20703125,0.423828125,-0.38671875
63,587771,887771,-0.184143066,-0.848999023,0.306274414,0.389160156,0.18359375,0.23046875,-0.23046875,5.1015625,-6.375,-4.8828125,-0.251953125,0.490234375,-0.3125
64,595887,895887,-0.184143066,-0.848632812,0.304260254,0.391662598,0.48046875,0.0625,-0.0859375,5.1875,-6.3203125,-4.875,-0.251953125,0.490234375,-0.3125
65,607731,907731,-0.184082031,-0.847961426,0.302429199,0.39453125,0.48046875,0.0625,-0.0859375,5.1875,-6.3203125,-4.875,-0.125,0.646484375,-0.314453125
66,613491,913491,-0.183959961,-0.847106934,0.30065918,0.397644043,0.76171875,-0.0703125,0.45703125,5.2890625,-6.265625,-4.84375,-0.125,0.646484375,-0.314453125
67,626323,926323,-0.18371582,-0.846374512,0.29888916,0.400695801,0.76171875,-0.0703125,0.45703125,5.2890625,-6.265625,-4.84375,-0.140625,0.6171875,-0.35546875
68,632816,932816,-0.183349609,-0.845825195,0.29699707,0.403442383,0.3125,0.19140625,0.40234375,5.390625,-6.21875,-4.7890625,-0.140625,0.6171875,-0.35546875
69,646439,946439,-0.182922363,-0.845458984,0.29473877,0.406066895,0.3125,0.19140625,0.40234375,5.390625,-6.21875,-4.7890625,-0.26171875,0.5,-0.3828125
70,654924,954924,-0.182678223,-0.845092773,0.292419434,0.408569336,0.3671875,0.2890625,0.32421875,5.4921875,-6.1640625,-4.75,-0.26171875,0.5,-0.3828125
71,666778,966778,-0.182556152,-0.844543457,0.290344238,0.411193848,0.3671875,0.2890625,0.32421875,5.4921875,-6.1640625,-4.75,-0.189453125,0.6015625,-0.310546875
72,675209,975209,-0.182495117,-0.84387207,0.288452148,0.414001465,0.45703125,0.1484375,0.74609375,5.59375,-6.1015625,-4.7109375,-0.189453125,0.6015625,-0.310546875
73,687314,987314,-0.182434082,-0.843078613,0.286804199,0.416687012,0.45703125,0.1484375,0.74609375,5.59375,-6.1015625,-4.7109375,-0.115234375,0.544921875,-0.265625
74,694980,994980,-0.182312012,-0.842407227,0.285400391,0.419128418,0.21484375,0.37109375,1.04296875,5.6796875,-6.0546875,-4.6640625,-0.115234375,0.544921875,-0.265625
75,707732,1007732,-0.182312012,-0.841796875,0.284118652,0.421203613,0.21484375,0.37109375,1.04296875,5.6796875,-6.0546875,-4.6640625,-0.103515625,0.408203125,-0.1953125
76,713350,1013350,-0.182312012,-0.841369629,0.282836914,0.422912598,0.26171875,0.4921875,1.16015625,5.75,-6.0234375,-4.625,-0.103515625,0.408203125,-0.1953125
77,726233,1026233,-0.182434082,-0.841003418,0.281677246,0.424377441,0.26171875,0.4921875,1.16015625,5.75,-6.0234375,-4.625,-0.1484375,0.3046875,-0.15234375
78,733569,1033569,-0.182495117,-0.840759277,0.280517578,0.425598145,0.16796875,0.1953125,1.09765625,5.8046875,-5.9921875,-4.6015625,-0.1484375,0.3046875,-0.15234375
79,745734,1045734,-0.182556152,-0.840515137,0.279663086,0.426635742,0.16796875,0.1953125,1.09765625,5.8046875,-5.9921875,-4.6015625,-0.07421875,0.21484375,-0.111328125
80,758963,1058963,-0.182495117,-0.840270996,0.278991699,0.42755127,0.20703125,-0.06640625,1.08203125,5.84375,-5.9609375,-4.5859375,-0.07421875,0.21484375,-0.111328125
81,766121,1066121,-0.182434082,-0.840087891,0.278625488,0.428222656,0.20703125,-0.06640625,1.08203125,5.84375,-5.9609375,-4.5859375,-0.021484375,0.123046875,-0.064453125
82,773126,1073126,-0.182434082,-0.839904785,0.278320312,0.428710938,0.2109375,0.1484375,1.2109375,5.875,-5.9453125,-4.5625,-0.021484375,0.123046875,-0.064453125
83,785710,1085710,-0.182556152,-0.83984375,0.278259277,0.428894043,0.2109375,0.1484375,1.2109375,5.875,-5.9453125,-4.5625,-0.009765625,0.03125,0.0234375
84,792025,1092025,-0.182800293,-0.839782715,0.278320312,0.428833008,0.2421875,0.0625,1.28125,5.8828125,-5.9375,-4.5546875,-0.009765625,0.03125,0.0234375
85,806180,1106180,-0.183105469,-0.839782715,0.278503418,0.428588867,0.2421875,0.0625,1.28125,5.8828125,-5.9375,-4.5546875,-0.005859375,-0.046875,0.103515625
86,814205,1114205,-0.183532715,-0.83984375,0.278747559,0.428161621,0.2890625,0.109375,1.43359375,5.875,-5.9453125,-4.5546875,-0.005859375,-0.046875,0.103515625
87,826839,1126839,-0.184020996,-0.83996582,0.279052734,0.427490234,0.2890625,0.109375,1.43359375,5.875,-5.9453125,-4.5546875,-0.029296875,-0.146484375,0.158203125
88,835930,1135930,-0.184570312,-0.840332031,0.27947998,0.426269531,0.34375,0.5078125,1.9765625,5.859375,-5.9609375,-4.5625,-0.029296875,-0.146484375,0.158203125
89,845751,1145751,-0.185180664,-0.840942383,0.279846191,0.424560547,0.34375,0.5078125,1.9765625,5.859375,-5.9609375,-4.5625,-0.115234375,-0.392578125,0.236328125
90,855043,1155043,-0.185974121,-0.841796875,0.280212402,0.422180176,0.19921875,0.90625,2.09375,5.8125,-5.9765625,-4.6015625,-0.115234375,-0.392578125,0.236328125
91,864384,1164384,-0.187194824,-0.842895508,0.280578613,0.419189453,0.19921875,0.90625,2.09375,5.8125,-5.9765625,-4.6015625,-0.224609375,-0.572265625,0.400390625
92,871195,1171195,-0.188659668,-0.844055176,0.28112793,0.415893555,0.3984375,0.9609375,2.125,5.7265625,-5.9921875,-4.671875,-0.224609375,-0.572265625,0.400390625
93,884727,1184727,-0.190429688,-0.845336914,0.282287598,0.411682129,0.3984375,0.9609375,2.125,5.7265625,-5.9921875,-4.671875,-0.13671875,-0.810546875,0.6171875
94,892572,1192572,-0.192138672,-0.846618652,0.284179688,0.406860352,0.37109375,0.5,2.11328125,5.6015625,-6.03125,-4.7734375,-0.13671875,-0.810546875,0.6171875
95,904588,1204588,-0.193786621,-0.848022461,0.28692627,0.401184082,0.37109375,0.5,2.11328125,5.6015625,-6.03125,-4.7734375,0.087890625,-1.17578125,0.818359375
96,912483,1212483,-0.19519043,-0.849487305,0.290588379,0.394775391,0.703125,-0.45703125,1.484375,5.421875,-6.109375,-4.875,0.087890625,-1.17578125,0.818359375
97,924202,1224202,-0.196105957,-0.851074219,0.295288086,0.387390137,0.703125,-0.45703125,1.484375,5.421875,-6.109375,-4.875,0.40625,-1.609375,0.90625
98,934435,1234435,-0.196777344,-0.852661133,0.300354004,0.379516602,0.86328125,-0.7578125,0.17578125,5.1875,-6.2265625,-4.984375,0.40625,-1.609375,0.90625
99,943835,1243835,-0.197692871,-0.854187012,0.304992676,0.371887207,0.86328125,-0.7578125,0.17578125,5.1875,-6.2265625,-4.984375,0.275390625,-1.4921875,0.904296875
100,950664,1250664,-0.198974609,-0.85546875,0.308776855,0.36505127,1.3359375,-0.21484375,-0.48046875,4.90625,-6.3515625,-5.09375,0.275390625,-1.4921875,0.904296875
101,968871,1268871,-0.200744629,-0.856750488,0.312011719,0.358215332,1.3359375,-0.21484375,-0.48046875,4.90625,-6.3515625,-5.09375,-0.021484375,-1.23828125,0.919921875
102,973542,1273542,-0.203125,-0.858154297,0.31451416,0.351318359,1.0390625,0.15625,-0.33984375,4.6640625,-6.453125,-5.1953125,-0.021484375,-1.23828125,0.919921875
103,984869,1284869,-0.205871582,-0.859619141,0.316711426,0.344055176,1.0390625,0.15625,-0.33984375,4.6640625,-6.453125,-5.1953125,-0.2109375,-1.30273438,1.02734375
104,992474,1292474,-0.208496094,-0.86126709,0.319030762,0.336181641,0.83984375,-0.80859375,-0.12890625,4.40625,-6.5234375,-5.328125,-0.2109375,-1.30273438,1.02734375
105,1004035,1304035,-0.2109375,-0.862915039,0.321716309,0.327697754,0.83984375,-0.80859375,-0.12890625,4.40625,-6.5234375,-5.328125,-0.111328125,-1.61523438,1.0859375
106,1011554,1311554,-0.21295166,-0.864562988,0.325012207,0.318725586,1.05078125,-1.16015625,-0.02734375,4.1171875,-6.59375,-5.46875,-0.111328125,-1.61523438,1.0859375
107,1024355,1324355,-0.214538574,-0.866088867,0.328796387,0.309570312,1.05078125,-1.16015625,-0.02734375,4.1171875,-6.59375,-5.46875,0.10546875,-1.7734375,1.01171875
108,1030562,1330562,-0.215637207,-0.867553711,0.332702637,0.300354004,0.7265625,-1.07421875,-0.890625,3.7890625,-6.6796875,-5.6015625,0.10546875,-1.7734375,1.01171875
109,1043953,1343953,-0.216369629,-0.86907959,0.336669922,0.290710449,0.7265625,-1.07421875,-0.890625,3.7890625,-6.6796875,-5.6015625,0.119140625,-1.96289062,0.94140625
110,1052302,1352302,-0.216918945,-0.870666504,0.340576172,0.280883789,0.40625,-0.375,-1.1171875,3.4609375,-6.765625,-5.71875,0.119140625,-1.96289062,0.94140625
111,1063576,1363576,-0.217590332,-0.872436523,0.344299316,0.270141602,0.40625,-0.375,-1.1171875,3.4609375,-6.765625,-5.71875,-0.05078125,-2.01367188,0.978515625
112,1070505,1370505,-0.21862793,-0.874267578,0.347290039,0.259399414,-0.23046875,0.5390625,-1.26953125,3.1015625,-6.8359375,-5.8359375,-0.05078125,-2.01367188,0.978515625
113,1086174,1386174,-0.219787598,-0.876159668,0.349853516,0.24822998,-0.23046875,0.5390625,-1.26953125,3.1015625,-6.8359375,-5.8359375,-0.259765625,-2.15625,1.05078125
114,1089746,1389746,-0.220947266,-0.877990723,0.352355957,0.236999512,-0.921875,0.5390625,-1.50390625,2.71875,-6.875,-5.984375,-0.259765625,-2.15625,1.05078125
115,1105784,1405784,-0.222106934,-0.879821777,0.355041504,0.224853516,-0.921875,0.5390625,-1.50390625,2.71875,-6.875,-5.984375,-0.2265625,-2.265625,1.11523438
116,1110046,1410046,-0.223022461,-0.881347656,0.358276367,0.212463379,-1.12890625,0.10546875,-1.1015625,2.3125,-6.8984375,-6.1171875,-0.2265625,-2.265625,1.11523438
117,1126905,1426905,-0.223632812,-0.88269043,0.362304688,0.198852539,-1.12890625,0.10546875,-1.1015625,2.3125,-6.8984375,-6.1171875,0.01953125,-2.5859375,1.1953125
118,1130474,1430474,-0.224243164,-0.883850098,0.366210938,0.185546875,-0.890625,0.06640625,-0.7578125,1.84375,-6.9375,-6.234375,0.01953125,-2.5859375,1.1953125
119,1144842,1444842,-0.224914551,-0.88494873,0.370239258,0.170837402,-0.890625,0.06640625,-0.7578125,1.84375,-6.9375,-6.234375,-0.05078125,-2.68945312,1.27929688
120,1152878,1452878,-0.225708008,-0.885803223,0.374084473,0.15637207,-0.96484375,-0.23828125,-0.74609375,1.34375,-6.9765625,-6.3203125,-0.05078125,-2.68945312,1.27929688
121,1166674,1466674,-0.226745605,-0.886535645,0.377624512,0.141662598,-0.96484375,-0.23828125,-0.74609375,1.34375,-6.9765625,-6.3203125,-0.166015625,-2.74023438,1.40039062
122,1170233,1470233,-0.227905273,-0.886962891,0.380859375,0.127563477,-0.9765625,-0.4453125,-0.74609375,0.8203125,-7,-6.3984375,-0.166015625,-2.74023438,1.40039062
123,1184397,1484397,-0.229431152,-0.887084961,0.384338379,0.113037109,-0.9765625,-0.4453125,-0.74609375,0.8203125,-7,-6.3984375,-0.06640625,-2.55664062,1.4921875
124,1190423,1490423,-0.231323242,-0.886657715,0.388061523,0.0985717773,-1.25,-0.67578125,-0.9296875,0.2890625,-7,-6.4453125,-0.06640625,-2.55664062,1.4921875
125,1205905,1505905,-0.233276367,-0.885864258,0.391906738,0.0848999023,-1.25,-0.67578125,-0.9296875,0.2890625,-7,-6.4453125,0.115234375,-2.41210938,1.5390625
126,1210172,1510172,-0.235229492,-0.884765625,0.395751953,0.0721435547,-1.35546875,-0.55859375,-0.9296875,-0.2578125,-7,-6.4453125,0.115234375,-2.41210938,1.5390625
127,1223121,1523121,-0.237060547,-0.883361816,0.400024414,0.0584716797,-1.35546875,-0.55859375,-0.9296875,-0.2578125,-7,-6.4453125,0.19140625,-2.34765625,1.43945312
128,1233716,1533716,-0.238464355,-0.882019043,0.403869629,0.0455322266,-1.375,0.09765625,-0.36328125,-0.7734375,-7.0078125,-6.3984375,0.19140625,-2.34765625,1.43945312
129,1245906,1545906,-0.239501953,-0.880737305,0.407226562,0.0328369141,-1.375,0.09765625,-0.36328125,-0.7734375,-7.0078125,-6.3984375,0.0546875,-2.33398438,1.28125
130,1250170,1550170,-0.24017334,-0.879516602,0.410339355,0.0205078125,-1.234375,0.6640625,-0.234375,-1.2578125,-7,-6.3359375,0.0546875,-2.33398438,1.28125
131,1263965,1563965,-0.240478516,-0.878173828,0.413391113,0.00805664062,-1.234375,0.6640625,-0.234375,-1.2578125,-7,-6.3359375,0.0390625,-2.3125,1.13085938
132,1269199,1569199,0.240539551,0.87677002,-0.416442871,0.00439453125,-0.70703125,0.2109375,0.1953125,-1.7109375,-6.96875,-6.265625,0.0390625,-2.3125,1.13085938
133,1285640,1585640,0.240478516,0.875244141,-0.419311523,0.0161132812,-0.70703125,0.2109375,0.1953125,-1.7109375,-6.96875,-6.265625,0.060546875,-2.10546875,0.994140625
134,1289906,1589906,0.240478516,0.873779297,-0.421813965,0.0264282227,-0.0859375,0.10546875,0.3671875,-2.140625,-6.9375,-6.171875,0.060546875,-2.10546875,0.994140625
135,1303120,1603120,0.240356445,0.872192383,-0.424438477,0.037109375,-0.0859375,0.10546875,0.3671875,-2.140625,-6.9375,-6.171875,0.08203125,-1.87304688,0.8671875
136,1310483,1610483,0.240112305,0.870605469,-0.426818848,0.0465087891,-0.24609375,0.37109375,0.53515625,-2.515625,-6.8984375,-6.0703125,0.08203125,-1.87304688,0.8671875
137,1328450,1628450,0.239929199,0.869018555,-0.429138184,0.0552978516,-0.24609375,0.37109375,0.53515625,-2.515625,-6.8984375,-6.0703125,0.115234375,-1.61132812,0.765625
138,1329918,1629918,0.239746094,0.867431641,-0.431274414,0.063659668,-0.27734375,0.45703125,0.50390625,-2.828125,-6.8671875,-5.9609375,0.115234375,-1.61132812,0.765625
139,1342580,1642580,0.239501953,0.865905762,-0.433227539,0.071472168,-0.27734375,0.45703125,0.50390625,-2.828125,-6.8671875,-5.9609375,0.083984375,-1.46289062,0.6640625
140,1349413,1649413,0.239196777,0.864440918,-0.435058594,0.0787353516,-0.11328125,0.5,0.4296875,-3.109375,-6.8359375,-5.8515625,0.083984375,-1.46289062,0.6640625
141,1367344,1667344,0.238952637,0.863037109,-0.436767578,0.0855712891,-0.11328125,0.5,0.4296875,-3.109375,-6.8359375,-5.8515625,0.0859375,-1.31054688,0.59375
142,1371089,1671089,0.238647461,0.861572266,-0.438415527,0.0924072266,-0.0625,0.36328125,0.5390625,-3.3515625,-6.8125,-5.765625,0.0859375,-1.31054688,0.59375
143,1382389,1682389,0.238220215,0.860290527,-0.439819336,0.0983886719,-0.0625,0.36328125,0.5390625,-3.3515625,-6.8125,-5.765625,0.076171875,-1.11132812,0.44921875
144,1389481,1689481,0.237731934,0.859069824,-0.441162109,0.103820801,0.05078125,0.24609375,0.4375,-3.578125,-6.7734375,-5.6640625,0.076171875,-1.11132812,0.44921875
145,1405538,1705538,0.237365723,0.858093262,-0.442199707,0.108459473,0.05078125,0.24609375,0.4375,-3.578125,-6.7734375,-5.6640625,0.025390625,-0.89453125,0.376953125
146,1409120,1709120,0.237121582,0.857116699,-0.44317627,0.112854004,0.21484375,0.19140625,0.55078125,-3.7421875,-6.7578125,-5.5859375,0.025390625,-0.89453125,0.376953125
147,1421949,1721949,0.236938477,0.856140137,-0.444152832,0.116943359,0.21484375,0.19140625,0.55078125,-3.7421875,-6.7578125,-5.5859375,0.068359375,-0.701171875,0.3203125
148,1428845,1728845,0.236877441,0.855224609,-0.445007324,0.120178223,-0.140625,0.36328125,0.2890625,-3.8828125,-6.734375,-5.515625,0.068359375,-0.701171875,0.3203125
149,1446281,1746281,0.236877441,0.854492188,-0.445739746,0.122802734,-0.140625,0.36328125,0.2890625,-3.8828125,-6.734375,-5.515625,0.080078125,-0.494140625,0.265625
150,1449302,1749302,0.236999512,0.85369873,-0.446472168,0.125244141,-0.00390625,0.078125,0.38671875,-3.984375,-6.71875,-5.4609375,0.080078125,-0.494140625,0.265625
151,1462307,1762307,0.237182617,0.853027344,-0.44708252,0.127319336,-0.00390625,0.078125,0.38671875,-3.984375,-6.71875,-5.4609375,0.05078125,-0.33203125,0.22265625
152,1470971,1770971,0.237365723,0.852478027,-0.447509766,0.12902832,-0.1171875,0.22265625,0.33984375,-4.0625,-6.7109375,-5.4140625,0.05078125,-0.33203125,0.22265625
153,1485144,1785144,0.237365723,0.852050781,-0.447937012,0.130432129,-0.1171875,0.22265625,0.33984375,-4.0625,-6.7109375,-5.4140625,0.048828125,-0.25,0.10546875
154,1488146,1788146,0.237182617,0.85168457,-0.448364258,0.131408691,-0.17578125,0.359375,0.078125,-4.1171875,-6.6953125,-5.3828125,0.048828125,-0.25,0.10546875
155,1501054,1801054,0.236999512,0.85144043,-0.448852539,0.132080078,-0.17578125,0.359375,0.078125,-4.1171875,-6.6953125,-5.3828125,0.064453125,-0.119140625,0.00390625
156,1508621,1808621,0.236816406,0.851257324,-0.44921875,0.132263184,-0.03125,0.28515625,-0.0625,-4.1484375,-6.6953125,-5.359375,0.064453125,-0.119140625,0.00390625
157,1525195,1825195,0.236694336,0.851135254,-0.449584961,0.131958008,-0.03125,0.28515625,-0.0625,-4.1484375,-6.6953125,-5.359375,0.076171875,0.0859375,-0.07421875
158,1528222,1828222,0.236633301,0.851196289,-0.449768066,0.13104248,0.23828125,0.72265625,-0.11328125,-4.1484375,-6.7109375,-5.34375,0.076171875,0.0859375,-0.07421875
159,1541783,1841783,0.236633301,0.851379395,-0.449890137,0.129516602,0.23828125,0.72265625,-0.11328125,-4.1484375,-6.7109375,-5.34375,0.0625,0.3046875,-0.171875
160,1550848,1850848,0.236572266,0.851745605,-0.449829102,0.127441406,0.23828125,0.69921875,-0.03125,-4.109375,-6.7265625,-5.3515625,0.0625,0.3046875,-0.171875
161,1565252,1865252,0.23651123,0.852233887,-0.449645996,0.12487793,0.23828125,0.69921875,-0.03125,-4.109375,-6.7265625,-5.3515625,0.021484375,0.490234375,-0.287109375
162,1568287,1868287,0.23638916,0.852905273,-0.44921875,0.122009277,-0.03125,0.796875,0.1484375,-4.03125,-6.75,-5.375,0.021484375,0.490234375,-0.287109375
163,1581483,1881483,0.236083984,0.853942871,-0.448425293,0.118408203,-0.03125,0.796875,0.1484375,-4.03125,-6.75,-5.375,-0.083984375,0.681640625,-0.41796875
164,1587662,1887662,0.235778809,0.855102539,-0.44732666,0.114318848,-0.37109375,0.8984375,0.31640625,-3.921875,-6.7734375,-5.4296875,-0.083984375,0.681640625,-0.41796875
165,1604156,1904156,0.235534668,0.856506348,-0.446044922,0.109619141,-0.37109375,0.8984375,0.31640625,-3.921875,-6.7734375,-5.4296875,-0.154296875,0.962890625,-0.529296875
166,1607868,1907868,0.235473633,0.858032227,-0.444458008,0.104187012,-0.20703125,0.64453125,0.47265625,-3.78125,-6.7890625,-5.5078125,-0.154296875,0.962890625,-0.529296875
167,1621453,1921453,0.235778809,0.859863281,-0.442321777,0.0971069336,-0.20703125,0.64453125,0.47265625,-3.78125,-6.7890625,-5.5078125,-0.18359375,1.46289062,-0.607421875
168,1630602,1930602,0.23651123,0.861694336,-0.440002441,0.0891113281,0.08203125,0.515625,0.84765625,-3.5703125,-6.8125,-5.6171875,-0.18359375,1.46289062,-0.607421875
169,1643999,1943999,0.237487793,0.863586426,-0.4375,0.0801391602,0.08203125,0.515625,0.84765625,-3.5703125,-6.8125,-5.6171875,-0.140625,1.89453125,-0.703125
170,1647010,1947010,0.238464355,0.86541748,-0.434936523,0.0704956055,-0.4375,0.38671875,1.1796875,-3.28125,-6.8359375,-5.7578125,-0.140625,1.89453125,-0.703125
171,1659992,1959992,0.239318848,0.867431641,-0.432067871,0.0599975586,-0.4375,0.38671875,1.1796875,-3.28125,-6.8359375,-5.7578125,-0.158203125,2.08789062,-0.880859375
172,1666739,1966739,0.239746094,0.869506836,-0.429016113,0.0489501953,-1.69140625,0.37109375,0.78515625,-2.9453125,-6.859375,-5.8984375,-0.158203125,2.08789062,-0.880859375
173,1683031,1983031,0.239807129,0.871704102,-0.425720215,0.0377197266,-1.69140625,0.37109375,0.78515625,-2.9453125,-6.859375,-5.8984375,-0.263671875,2.1015625,-1.03515625
174,1686607,1986607,0.239685059,0.873840332,-0.422180176,0.0269775391,-1.73046875,0.671875,0.42578125,-2.5625,-6.890625,-6.0390625,-0.263671875,2.1015625,-1.03515625
175,1700775,2000775,0.239746094,0.876098633,-0.41809082,0.0151367188,-1.73046875,0.671875,0.42578125,-2.5625,-6.890625,-6.0390625,-0.330078125,2.25976562,-1.04882812
176,1708549,2008549,0.239990234,0.877990723,-0.41418457,0.00366210938,-1.1875,0.33203125,0.0390625,-2.1484375,-6.8984375,-6.1875,-0.330078125,2.25976562,-1.04882812
177,1719768,2019768,-0.240539551,-0.879760742,0.41003418,0.00994873047,-1.1875,0.33203125,0.0390625,-2.1484375,-6.8984375,-6.1875,-0.15625,2.64257812,-1.08203125
178,1726946,2026946,-0.241271973,-0.88104248,0.40625,0.0241088867,-0.62890625,-0.5,0.28125,-1.7109375,-6.90625,-6.3125,-0.15625,2.64257812,-1.08203125
179,1740704,2040704,-0.241943359,-0.881896973,0.402709961,0.0391235352,-0.62890625,-0.5,0.28125,-1.7109375,-6.90625,-6.3125,0.08203125,2.89257812,-1.17773438
180,1746078,2046078,-0.24230957,-0.882446289,0.399597168,0.0536499023,-1.44140625,-0.81640625,0.16796875,-1.203125,-6.9375,-6.390625,0.08203125,2.89257812,-1.17773438
181,1763067,2063067,-0.2421875,-0.882873535,0.396362305,0.0692138672,-1.44140625,-0.81640625,0.16796875,-1.203125,-6.9375,-6.390625,0.181640625,2.69921875,-1.28515625
182,1766091,2066091,-0.241577148,-0.883056641,0.393615723,0.0828857422,-1.9375,-0.8125,-0.4453125,-0.671875,-6.9765625,-6.4296875,0.181640625,2.69921875,-1.28515625
183,1780664,2080664,-0.240600586,-0.883361816,0.390258789,0.0971069336,-1.9375,-0.8125,-0.4453125,-0.671875,-6.9765625,-6.4296875,0.0078125,2.45507812,-1.33984375
184,1793175,2093175,-0.239562988,-0.883850098,0.386474609,0.109924316,-1.71484375,0.359375,-0.37109375,-0.1640625,-7,-6.4296875,0.0078125,2.45507812,-1.33984375
185,1802639,2102639,-0.238647461,-0.884277344,0.382019043,0.12298584,-1.71484375,0.359375,-0.37109375,-0.1640625,-7,-6.4296875,-0.21484375,2.41210938,-1.23632812
186,1806257,2106257,-0.238098145,-0.884460449,0.377624512,0.135498047,-0.4765625,0.11328125,-0.890625,0.3203125,-6.984375,-6.4453125,-0.21484375,2.41210938,-1.23632812
187,1821948,2121948,-0.237976074,-0.884155273,0.373291016,0.149169922,-0.4765625,0.11328125,-0.890625,0.3203125,-6.984375,-6.4453125,-0.0390625,2.55273438,-1.06640625
188,1826735,2126735,-0.23815918,-0.883361816,0.369873047,0.161804199,-0.234375,-0.53125,-0.70703125,0.8046875,-6.953125,-6.4375,-0.0390625,2.55273438,-1.06640625
189,1842656,2142656,-0.238342285,-0.881835938,0.367004395,0.17565918,-0.234375,-0.53125,-0.70703125,0.8046875,-6.953125,-6.4375,0.35546875,2.41992188,-0.927734375
190,1846746,2146746,-0.238098145,-0.880187988,0.365478516,0.187194824,-0.5703125,-1.296875,-0.27734375,1.2578125,-6.953125,-6.3671875,0.35546875,2.41992188,-0.927734375
191,1860854,2160854,-0.237243652,-0.878234863,0.364318848,0.199401855,-0.5703125,-1.296875,-0.27734375,1.2578125,-6.953125,-6.3671875,0.5234375,1.984375,-0.97265625
192,1869513,2169513,-0.235839844,-0.876647949,0.363037109,0.210021973,-0.703125,-0.3828125,-0.82421875,1.65625,-6.984375,-6.2421875,0.5234375,1.984375,-0.97265625
193,1881246,2181246,-0.234191895,-0.875488281,0.36114502,0.219543457,-0.703125,-0.3828125,-0.82421875,1.65625,-6.984375,-6.2421875,0.158203125,1.59765625,-1.01953125
194,1888570,2188570,-0.23260498,-0.874816895,0.358398438,0.228210449,0.2421875,1.38671875,-0.484375,2.015625,-6.9921875,-6.125,0.158203125,1.59765625,-1.01953125
195,1900548,2200548,-0.231506348,-0.874450684,0.355224609,0.235717773,0.2421875,1.38671875,-0.484375,2.015625,-6.9921875,-6.125,-0.1875,1.40429688,-0.822265625
196,1906511,2206511,-0.230895996,-0.873901367,0.351989746,0.242980957,1.1640625,-0.0390625,-0.8828125,2.3203125,-6.9453125,-6.0703125,-0.1875,1.40429688,-0.822265625
197,1921126,2221126,-0.230712891,-0.872924805,0.349487305,0.250305176,1.1640625,-0.0390625,-0.8828125,2.3203125,-6.9453125,-6.0703125,0.076171875,1.50585938,-0.587890625
198,1925943,2225943,-0.230773926,-0.871276855,0.347839355,0.258178711,0.859375,-1.50390625,-0.90625,2.5859375,-6.8984375,-6.0078125,0.076171875,1.50585938,-0.587890625
199,1941771,2241771,-0.230529785,-0.868835449,0.347045898,0.267578125,0.859375,-1.50390625,-0.90625,2.5859375,-6.8984375,-6.0078125,0.6015625,1.65625,-0.62109375
200,1950491,2250491,-0.229370117,-0.866455078,0.34753418,0.275390625,0.1328125,-1.14453125,0.078125,2.8515625,-6.9140625,-5.8828125,0.6015625,1.65625,-0.62109375
201,1962213,2262213,-0.226989746,-0.864135742,0.348754883,0.283081055,0.1328125,-1.14453125,0.078125,2.8515625,-6.9140625,-5.8828125,0.78515625,1.05078125,-0.80859375
202,1966497,2266497,-0.224243164,-0.862731934,0.349060059,0.2890625,0.11328125,0.85546875,0.734375,3.1015625,-6.9609375,-5.6953125,0.78515625,1.05078125,-0.80859375
203,1980603,2280603,-0.221435547,-0.862121582,0.347961426,0.294372559,0.11328125,0.85546875,0.734375,3.1015625,-6.9609375,-5.6953125,0.09765625,0.744140625,-0.888671875
204,1985635,2285635,-0.218994141,-0.861877441,0.345703125,0.299438477,0.9375,2.11328125,-0.25390625,3.3125,-6.953125,-5.5859375,0.09765625,0.744140625,-0.888671875
205,2000490,2300490,-0.217468262,-0.861694336,0.342895508,0.304382324,0.9375,2.11328125,-0.25390625,3.3125,-6.953125,-5.5859375,-0.232421875,0.9609375,-0.712890625
206,2006495,2306495,-0.216796875,-0.861083984,0.339904785,0.309814453,1.4140625,0.25,-0.80078125,3.5234375,-6.890625,-5.5390625,-0.232421875,0.9609375,-0.712890625
207,2020831,2320831,-0.21673584,-0.859924316,0.337524414,0.315612793,1.4140625,0.25,-0.80078125,3.5234375,-6.890625,-5.5390625,0.037109375,1.33007812,-0.49609375
208,2028892,2328892,-0.21661377,-0.857971191,0.335998535,0.322570801,0.67578125,-2.1484375,-0.13671875,3.7265625,-6.828125,-5.4765625,0.037109375,1.33007812,-0.49609375
209,2040212,2340212,-0.215759277,-0.85559082,0.335144043,0.33026123,0.67578125,-2.1484375,-0.13671875,3.7265625,-6.828125,-5.4765625,0.466796875,1.40429688,-0.666015625
210,2046208,2346208,-0.213989258,-0.85333252,0.334472656,0.33782959,0.25,-1.3515625,0.40625,3.9609375,-6.8203125,-5.328125,0.466796875,1.40429688,-0.666015625
211,2062573,2362573,-0.211730957,-0.85168457,0.333374023,0.344543457,0.25,-1.3515625,0.40625,3.9609375,-6.8203125,-5.328125,0.310546875,1.14453125,-0.9296875
212,2066313,2366313,-0.209228516,-0.850524902,0.331420898,0.350769043,0.55078125,1.6875,1.09375,4.1953125,-6.796875,-5.171875,0.310546875,1.14453125,-0.9296875
213,2078671,2378671,-0.20703125,-0.850036621,0.328613281,0.355773926,0.55078125,1.6875,1.09375,4.1953125,-6.796875,-5.171875,-0.205078125,0.787109375,-0.841796875
214,2085731,2385731,-0.205444336,-0.850036621,0.325012207,0.359985352,0.86328125,1.80859375,0.73828125,4.421875,-6.7265625,-5.0859375,-0.205078125,0.787109375,-0.841796875
215,2099641,2399641,-0.204528809,-0.850341797,0.321044922,0.36340332,0.86328125,1.80859375,0.73828125,4.421875,-6.7265625,-5.0859375,-0.537109375,0.609375,-0.599609375
216,2108619,2408619,-0.204162598,-0.850585938,0.317382812,0.366271973,0.99609375,0.015625,0.26171875,4.59375,-6.6171875,-5.0703125,-0.537109375,0.609375,-0.599609375
217,2121017,2421017,-0.203979492,-0.850341797,0.314453125,0.369384766,0.99609375,0.015625,0.26171875,4.59375,-6.6171875,-5.0703125,-0.21875,0.73828125,-0.400390625
218,2126639,2426639,-0.203796387,-0.84954834,0.312438965,0.37298584,1.25390625,-0.609375,0.37890625,4.71875,-6.53125,-5.0703125,-0.21875,0.73828125,-0.400390625
219,2141889,2441889,-0.203308105,-0.848571777,0.31060791,0.37701416,1.25390625,-0.609375,0.37890625,4.71875,-6.53125,-5.0703125,-0.01171875,0.744140625,-0.42578125
220,2145631,2445631,-0.202575684,-0.84777832,0.309020996,0.380432129,0.43359375,-0.1953125,0.5078125,4.8515625,-6.484375,-5.0078125,-0.01171875,0.744140625,-0.42578125
221,2161780,2461780,-0.201660156,-0.847167969,0.307006836,0.383850098,0.43359375,-0.1953125,0.5078125,4.8515625,-6.484375,-5.0078125,-0.142578125,0.58203125,-0.4921875
222,2165528,2465528,-0.200866699,-0.846923828,0.304748535,0.386657715,0.421875,0.59375,0.4921875,4.9765625,-6.4296875,-4.953125,-0.142578125,0.58203125,-0.4921875
223,2181199,2481199,-0.200317383,-0.846801758,0.301757812,0.389526367,0.421875,0.59375,0.4921875,4.9765625,-6.4296875,-4.953125,-0.36328125,0.578125,-0.462890625
224,2189595,2489595,-0.200195312,-0.846618652,0.29876709,0.392333984,0.87109375,0.8671875,0.54296875,5.1015625,-6.359375,-4.9296875,-0.36328125,0.578125,-0.462890625
225,2202363,2502363,-0.200439453,-0.846130371,0.295349121,0.395751953,0.87109375,0.8671875,0.54296875,5.1015625,-6.359375,-4.9296875,-0.400390625,0.75390625,-0.369140625
226,2206499,2506499,-0.200744629,-0.845581055,0.292480469,0.398986816,0.83203125,0.3203125,0.796875,5.21875,-6.2734375,-4.9140625,-0.400390625,0.75390625,-0.369140625
227,2217785,2517785,-0.20098877,-0.844787598,0.289916992,0.402282715,0.83203125,0.3203125,0.796875,5.21875,-6.2734375,-4.9140625,-0.240234375,0.7265625,-0.3359375
228,2225068,2525068,-0.201049805,-0.844055176,0.287658691,0.405456543,0.3671875,0.03125,1.1796875,5.3359375,-6.2109375,-4.875,-0.240234375,0.7265625,-0.3359375
229,2241029,2541029,-0.20098877,-0.843322754,0.285705566,0.40838623,0.3671875,0.03125,1.1796875,5.3359375,-6.2109375,-4.875,-0.140625,0.591796875,-0.291015625
230,2244787,2544787,-0.200866699,-0.842712402,0.284118652,0.410827637,0.3046875,0.2421875,1.3984375,5.4375,-6.15625,-4.828125,-0.140625,0.591796875,-0.291015625
231,2260366,2560366,-0.200683594,-0.842102051,0.282653809,0.413208008,0.3046875,0.2421875,1.3984375,5.4375,-6.15625,-4.828125,-0.09375,0.44140625,-0.244140625
232,2270362,2570362,-0.200500488,-0.84161377,0.281433105,0.415100098,0.44921875,0.39453125,1.5,5.5234375,-6.1171875,-4.7734375,-0.09375,0.44140625,-0.244140625
233,2282244,2582244,-0.200256348,-0.841125488,0.280578613,0.416809082,0.44921875,0.39453125,1.5,5.5234375,-6.1171875,-4.7734375,0,0.32421875,-0.173828125
234,2286738,2586738,-0.199951172,-0.840637207,0.280029297,0.418212891,0.42578125,0.09765625,1.46875,5.5859375,-6.0859375,-4.7421875,0,0.32421875,-0.173828125
235,2299284,2599284,-0.199645996,-0.840270996,0.279663086,0.419372559,0.42578125,0.09765625,1.46875,5.5859375,-6.0859375,-4.7421875,0.03125,0.1875,-0.109375
236,2304312,2604312,-0.199462891,-0.83996582,0.279418945,0.420166016,0.33984375,0.28125,1.359375,5.6328125,-6.078125,-4.7109375,0.03125,0.1875,-0.109375
237,2318722,2618722,-0.199401855,-0.83972168,0.27923584,0.420837402,0.33984375,0.28125,1.359375,5.6328125,-6.078125,-4.7109375,0.005859375,0.115234375,-0.029296875
238,2324806,2624806,-0.199523926,-0.839538574,0.27911377,0.421203613,0.4296875,0.1171875,0.9921875,5.65625,-6.0703125,-4.6875,0.005859375,0.115234375,-0.029296875
239,2339661,2639661,-0.199707031,-0.839416504,0.279174805,0.421386719,0.4296875,0.1171875,0.9921875,5.65625,-6.0703125,-4.6875,0.001953125,0.0390625,0.0546875
240,2347479,2647479,-0.200073242,-0.839294434,0.279296875,0.421386719,0.30859375,-0.2734375,0.66796875,5.6640625,-6.0625,-4.671875,0.001953125,0.0390625,0.0546875
241,2359143,2659143,-0.200561523,-0.839111328,0.279663086,0.421203613,0.30859375,-0.2734375,0.66796875,5.6640625,-6.0625,-4.671875,0.01953125,-0.01953125,0.13671875
242,2365652,2665652,-0.20111084,-0.839050293,0.280090332,0.420837402,0.31640625,-0.2578125,0.625,5.65625,-6.078125,-4.6640625,0.01953125,-0.01953125,0.13671875
243,2378900,2678900,-0.201782227,-0.839111328,0.280456543,0.420166016,0.31640625,-0.2578125,0.625,5.65625,-6.078125,-4.6640625,-0.037109375,-0.107421875,0.19140625
244,2383708,2683708,-0.202575684,-0.839233398,0.280761719,0.419372559,0.26171875,0.02734375,0.66796875,5.6328125,-6.09375,-4.671875,-0.037109375,-0.107421875,0.19140625
245,2398239,2698239,-0.203552246,-0.839416504,0.280883789,0.418395996,0.26171875,0.02734375,0.66796875,5.6328125,-6.09375,-4.671875,-0.125,-0.12890625,0.22265625
246,2403058,2703058,-0.204650879,-0.839660645,0.280883789,0.417297363,0.5703125,0.46484375,1.10546875,5.59375,-6.109375,-4.6875,-0.125,-0.12890625,0.22265625
247,2418327,2718327,-0.205932617,-0.83996582,0.280822754,0.416137695,0.5703125,0.46484375,1.10546875,5.59375,-6.109375,-4.6875,-0.205078125,-0.158203125,0.28125
248,2426488,2726488,-0.207519531,-0.840332031,0.280700684,0.414733887,0.84765625,0.82421875,1.8359375,5.546875,-6.125,-4.7265625,-0.205078125,-0.158203125,0.28125
249,2439912,2739912,-0.209106445,-0.840698242,0.280700684,0.413208008,0.84765625,0.82421875,1.8359375,5.546875,-6.125,-4.7265625,-0.228515625,-0.24609375,0.3828125
250,2443538,2743538,-0.21081543,-0.841247559,0.280944824,0.411010742,1.0078125,1.03125,2.37109375,5.5,-6.140625,-4.765625,-0.228515625,-0.24609375,0.3828125
251,2457988,2757988,-0.212646484,-0.842163086,0.281799316,0.407653809,1.0078125,1.03125,2.37109375,5.5,-6.140625,-4.765625,-0.18359375,-0.658203125,0.544921875
252,2463966,2763966,-0.214294434,-0.843261719,0.28326416,0.403442383,0.53515625,0.296875,1.8671875,5.3984375,-6.171875,-4.8359375,-0.18359375,-0.658203125,0.544921875
253,2478279,2778279,-0.215820312,-0.844421387,0.285522461,0.398620605,0.53515625,0.296875,1.8671875,5.3984375,-6.171875,-4.8359375,0.0625,-0.98828125,0.6875
254,2482558,2782558,-0.21697998,-0.845458984,0.288452148,0.393615723,0.73046875,-0.26171875,1.203125,5.2421875,-6.2265625,-4.9375,0.0625,-0.98828125,0.6875
255,2497972,2797972,-0.218017578,-0.846435547,0.292358398,0.388061523,0.73046875,-0.26171875,1.203125,5.2421875,-6.2265625,-4.9375,0.326171875,-1.13085938,0.751953125
256,2506616,2806616,-0.218811035,-0.847290039,0.296691895,0.382263184,1.22265625,-0.12890625,0.74609375,5.0546875,-6.3203125,-5.015625,0.326171875,-1.13085938,0.751953125
257,2520071,2820071,-0.219482422,-0.848205566,0.301025391,0.376525879,1.22265625,-0.12890625,0.74609375,5.0546875,-6.3203125,-5.015625,0.390625,-1.27929688,0.755859375
258,2524337,2824337,-0.219909668,-0.849182129,0.305358887,0.370483398,1.48046875,0.171875,0.37890625,4.8359375,-6.4296875,-5.0703125,0.390625,-1.27929688,0.755859375
259,2537876,2837876,-0.220275879,-0.850341797,0.309875488,0.363830566,1.48046875,0.171875,0.37890625,4.8359375,-6.4296875,-5.0703125,0.349609375,-1.35351562,0.720703125
260,2542906,2842906,-0.22064209,-0.85144043,0.313720703,0.35760498,1.70703125,-0.0546875,-0.1640625,4.609375,-6.546875,-5.140625,0.349609375,-1.35351562,0.720703125
261,2558399,2858399,-0.221191406,-0.852844238,0.317565918,0.350463867,1.70703125,-0.0546875,-0.1640625,4.609375,-6.546875,-5.140625,0.15625,-1.42382812,0.720703125
262,2562153,2862153,-0.221557617,-0.854309082,0.320983887,0.34362793,1.16796875,-0.70703125,-0.5,4.3828125,-6.625,-5.2265625,0.15625,-1.42382812,0.720703125
263,2576362,2876362,-0.221557617,-0.855895996,0.324829102,0.335998535,1.16796875,-0.70703125,-0.5,4.3828125,-6.625,-5.2265625,0.20703125,-1.49609375,0.607421875
264,2594589,2894589,-0.221252441,-0.857421875,0.32824707,0.328857422,0.64453125,-0.55078125,-0.4765625,4.140625,-6.703125,-5.328125,0.20703125,-1.49609375,0.607421875
265,2600073,2900073,-0.22088623,-0.859130859,0.331420898,0.321411133,0.64453125,-0.55078125,-0.4765625,4.140625,-6.703125,-5.328125,0.072265625,-1.66210938,0.603515625
266,2606016,2906016,-0.22076416,-0.861206055,0.334228516,0.312866211,-0.1875,0.46875,-1.33203125,3.8984375,-6.765625,-5.4296875,0.072265625,-1.66210938,0.603515625
267,2615313,2915313,-0.221008301,-0.863586426,0.336791992,0.303161621,-0.1875,0.46875,-1.33203125,3.8984375,-6.765625,-5.4296875,-0.220703125,-1.94335938,0.765625
268,2627249,2927249,-0.221557617,-0.866149902,0.339050293,0.292785645,-0.31640625,0.6328125,-1.15234375,3.609375,-6.8125,-5.5703125,-0.220703125,-1.94335938,0.765625
269,2637623,2937623,-0.222473145,-0.868591309,0.341003418,0.282409668,-0.31640625,0.6328125,-1.15234375,3.609375,-6.8125,-5.5703125,-0.41015625,-2.10742188,0.9453125
270,2641241,2941241,-0.223449707,-0.87109375,0.343200684,0.271057129,-0.59375,-0.234375,-1.203125,3.2734375,-6.828125,-5.75,-0.41015625,-2.10742188,0.9453125
271,2657280,2957280,-0.22442627,-0.873474121,0.345825195,0.258972168,-0.59375,-0.234375,-1.203125,3.2734375,-6.828125,-5.75,-0.26953125,-2.24804688,1.02539062
272,2665075,2965075,-0.225402832,-0.875549316,0.348327637,0.247497559,-0.703125,-0.5546875,-0.82421875,2.8828125,-6.8515625,-5.9375,-0.26953125,-2.24804688,1.02539062
273,2676316,2976316,-0.226623535,-0.877624512,0.351013184,0.235046387,-0.703125,-0.5546875,-0.82421875,2.8828125,-6.8515625,-5.9375,-0.296875,-2.33789062,1.16015625
274,2683653,2983653,-0.228149414,-0.879455566,0.353942871,0.221862793,-0.7109375,-0.37890625,-1.39453125,2.46875,-6.875,-6.09375,-0.296875,-2.33789062,1.16015625
275,2699101,2999101,-0.229919434,-0.880981445,0.356994629,0.208740234,-0.7109375,-0.37890625,-1.39453125,2.46875,-6.875,-6.09375,-0.255859375,-2.35742188,1.3359375
276,2705859,3005859,-0.231811523,-0.882080078,0.360046387,0.196289062,-1.19921875,-1.08203125,-0.90234375,2,-6.8984375,-6.2421875,-0.255859375,-2.35742188,1.3359375
277,2718247,3018247,-0.234008789,-0.8828125,0.364074707,0.182617188,-1.19921875,-1.08203125,-0.90234375,2,-6.8984375,-6.2421875,0.025390625,-2.37304688,1.45507812
278,2721892,3021892,-0.235778809,-0.882995605,0.368286133,0.170532227,-1.671875,-1.3515625,-0.8828125,1.515625,-6.9375,-6.3359375,0.025390625,-2.37304688,1.45507812
279,2736939,3036939,-0.237487793,-0.882873535,0.373168945,0.157592773,-1.671875,-1.3515625,-0.8828125,1.515625,-6.9375,-6.3359375,0.236328125,-2.22851562,1.328125
280,2745075,3045075,-0.238769531,-0.882629395,0.377624512,0.146362305,-1.33203125,-0.8359375,-0.4609375,1.0234375,-6.9921875,-6.375,0.236328125,-2.22851562,1.328125
281,2759131,3059131,-0.239807129,-0.882263184,0.382080078,0.134521484,-1.33203125,-0.8359375,-0.4609375,1.0234375,-6.9921875,-6.375,0.177734375,-2.21679688,1.20703125
282,2763153,3063153,-0.240783691,-0.881958008,0.386169434,0.122741699,-1.234375,0.0546875,-0.453125,0.578125,-7.0390625,-6.3828125,0.177734375,-2.21679688,1.20703125
283,2775853,3075853,-0.241760254,-0.881591797,0.390075684,0.110656738,-1.234375,0.0546875,-0.453125,0.578125,-7.0390625,-6.3828125,0.09375,-2.14453125,1.171875
284,2784486,3084486,-0.242614746,-0.881164551,0.393615723,0.0990600586,-0.5859375,0.23828125,-0.33984375,0.125,-7.0703125,-6.3828125,0.09375,-2.14453125,1.171875
285,2795285,3095285,-0.243530273,-0.880615234,0.396850586,0.0878295898,-0.5859375,0.23828125,-0.33984375,0.125,-7.0703125,-6.3828125,0.052734375,-2.03710938,1.1328125
286,2801403,3101403,-0.244384766,-0.879943848,0.400024414,0.0769042969,-0.43359375,0.0546875,-0.046875,-0.296875,-7.078125,-6.3671875,0.052734375,-2.03710938,1.1328125
287,2815864,3115864,-0.245300293,-0.87902832,0.403320312,0.0663452148,-0.43359375,0.0546875,-0.046875,-0.296875,-7.078125,-6.3671875,0.15625,-1.89453125,1.09179688
288,2824203,3124203,-0.246154785,-0.877990723,0.406738281,0.0560913086,-0.2578125,-0.0234375,0.1484375,-0.703125,-7.078125,-6.3359375,0.15625,-1.89453125,1.09179688
289,2838845,3138845,-0.246887207,-0.876831055,0.409912109,0.0467529297,-0.2578125,-0.0234375,0.1484375,-0.703125,-7.078125,-6.3359375,0.20703125,-1.78515625,1.01953125
290,2844805,3144805,-0.247619629,-0.875549316,0.413146973,0.037109375,-0.45703125,0.58984375,0.2421875,-1.078125,-7.078125,-6.2734375,0.20703125,-1.78515625,1.01953125
291,2855269,3155269,-0.248413086,-0.874267578,0.416137695,0.0276489258,-0.45703125,0.58984375,0.2421875,-1.078125,-7.078125,-6.2734375,0.130859375,-1.65039062,0.955078125
292,2863976,3163976,-0.249084473,-0.87310791,0.418701172,0.0189819336,-0.58984375,0.62890625,0.1484375,-1.4453125,-7.078125,-6.21875,0.130859375,-1.65039062,0.955078125
293,2877685,3177685,-0.249633789,-0.871948242,0.421020508,0.0108032227,-0.58984375,0.62890625,0.1484375,-1.4453125,-7.078125,-6.21875,0.05859375,-1.46484375,0.822265625
294,2881426,3181426,-0.250061035,-0.87097168,0.422912598,0.00335693359,-0.734375,0.7265625,0.26953125,-1.7578125,-7.0625,-6.1484375,0.05859375,-1.46484375,0.822265625
295,2896589,3196589,0.250305176,0.869934082,-0.424865723,0.00402832031,-0.734375,0.7265625,0.26953125,-1.7578125,-7.0625,-6.1484375,0.048828125,-1.2578125,0.654296875
296,2907672,3207672,0.250366211,0.869018555,-0.426574707,0.0102539062,-0.4921875,0.3671875,0.48046875,-2.0390625,-7.046875,-6.09375,0.048828125,-1.2578125,0.654296875
297,2917935,3217935,0.250244141,0.868041992,-0.428527832,0.0163574219,-0.4921875,0.3671875,0.48046875,-2.0390625,-7.046875,-6.09375,0.1328125,-1.10351562,0.478515625
298,2922761,3222761,0.249755859,0.867126465,-0.430358887,0.0216064453,-0.80859375,0.23828125,0.2578125,-2.2578125,-7.03125,-6.0234375,0.1328125,-1.10351562,0.478515625
299,2934045,3234045,0.248901367,0.866333008,-0.432189941,0.0267333984,-0.80859375,0.23828125,0.2578125,-2.2578125,-7.03125,-6.0234375,0.091796875,-0.994140625,0.302734375
300,2943354,3243354,0.248046875,0.865722656,-0.43359375,0.0311279297,-0.46875,0.57421875,0.34765625,-2.4453125,-7.0234375,-5.9609375,0.091796875,-0.994140625,0.302734375
301,2955581,3255581,0.247009277,0.86517334,-0.434936523,0.0354003906,-0.46875,0.57421875,0.34765625,-2.4453125,-7.0234375,-5.9609375,0.044921875,-0.828125,0.1875
302,2959996,3259996,0.246154785,0.864746094,-0.436035156,0.0387573242,-0.48046875,0.57421875,0.1015625,-2.5859375,-7.0234375,-5.90625,0.044921875,-0.828125,0.1875
303,2976367,3276367,0.245483398,0.864257812,-0.437011719,0.041809082,-0.48046875,0.57421875,0.1015625,-2.5859375,-7.0234375,-5.90625,0.05078125,-0.58203125,0.169921875
304,2986502,3286502,0.244995117,0.863830566,-0.437927246,0.0444946289,-0.1875,0.45703125,0.36328125,-2.6875,-7.0234375,-5.859375,0.05078125,-0.58203125,0.169921875
305,2996533,3296533,0.244628906,0.86340332,-0.438781738,0.046875,-0.1875,0.45703125,0.36328125,-2.6875,-7.0234375,-5.859375,0.076171875,-0.46484375,0.1484375
306,3000166,3300166,0.24432373,0.862915039,-0.439575195,0.0490722656,-0.484375,0.375,0.40625,-2.7734375,-7.015625,-5.828125,0.076171875,-0.46484375,0.1484375
307,3015854,3315854,0.24407959,0.862548828,-0.440307617,0.0513305664,-0.484375,0.375,0.40625,-2.7734375,-7.015625,-5.828125,0.033203125,-0.42578125,0.15234375
308,3023237,3323237,0.243713379,0.862182617,-0.440856934,0.0533447266,-0.8671875,0.6796875,0.3671875,-2.8515625,-7.015625,-5.7890625,0.033203125,-0.42578125,0.15234375
309,3035355,3335355,0.243347168,0.861938477,-0.44128418,0.0555419922,-0.8671875,0.6796875,0.3671875,-2.8515625,-7.015625,-5.7890625,-0.021484375,-0.40234375,0.126953125
310,3040333,3340333,0.243041992,0.861755371,-0.441650391,0.0573730469,-0.52734375,0.59765625,0.34375,-2.921875,-7.0078125,-5.765625,-0.021484375,-0.40234375,0.126953125
311,3055167,3355167,0.242797852,0.861572266,-0.441894531,0.0592041016,-0.52734375,0.59765625,0.34375,-2.921875,-7.0078125,-5.765625,-0.033203125,-0.33203125,0.12890625
312,3065853,3365853,0.242675781,0.86138916,-0.442016602,0.0607910156,-0.65625,0.3125,0.17578125,-2.984375,-6.9921875,-5.75,-0.033203125,-0.33203125,0.12890625
313,3075708,3375708,0.242614746,0.86126709,-0.442138672,0.0622558594,-0.65625,0.3125,0.17578125,-2.984375,-6.9921875,-5.75,-0.041015625,-0.248046875,0.125
314,3079323,3379323,0.242553711,0.86114502,-0.442199707,0.0634765625,-0.49609375,0.2265625,0.390625,-3.03125,-6.984375,-5.734375,-0.041015625,-0.248046875,0.125
315,3094974,3394974,0.242492676,0.861022949,-0.442321777,0.064453125,-0.49609375,0.2265625,0.390625,-3.03125,-6.984375,-5.734375,-0.01171875,-0.150390625,0.064453125
316,3101479,3401479,0.242370605,0.860961914,-0.442443848,0.0651245117,-0.53515625,0.21875,0.3828125,-3.0703125,-6.9765625,-5.7265625,-0.01171875,-0.150390625,0.064453125
317,3114403,3414403,0.242248535,0.860961914,-0.442443848,0.065612793,-0.53515625,0.21875,0.3828125,-3.0703125,-6.9765625,-5.7265625,-0.021484375,-0.07421875,0.00390625
318,3120093,3420093,0.24206543,0.861022949,-0.442443848,0.0657958984,-0.546875,0.2109375,0.3359375,-3.09375,-6.96875,-5.71875,-0.021484375,-0.07421875,0.00390625
319,3134942,3434942,0.241760254,0.86114502,-0.442321777,0.0657348633,-0.546875,0.2109375,0.3359375,-3.09375,-6.96875,-5.71875,-0.03125,0.0234375,-0.076171875
320,3146364,3446364,0.241455078,0.861328125,-0.442138672,0.065246582,-0.35546875,0.13671875,0.23046875,-3.09375,-6.96875,-5.7265625,-0.03125,0.0234375,-0.076171875
321,3156719,3456719,0.241149902,0.861633301,-0.441955566,0.0643920898,-0.35546875,0.13671875,0.23046875,-3.09375,-6.96875,-5.7265625,-0.01171875,0.154296875,-0.15625
322,3160357,3460357,0.240783691,0.861877441,-0.441772461,0.0632324219,-0.37890625,0.05859375,0.23828125,-3.0703125,-6.96875,-5.734375,-0.01171875,0.154296875,-0.15625
323,3174484,3474484,0.240539551,0.862304688,-0.44140625,0.0615234375,-0.37890625,0.05859375,0.23828125,-3.0703125,-6.96875,-5.734375,-0.01171875,0.33203125,-0.2265625
324,3180964,3480964,0.240356445,0.862670898,-0.440979004,0.059387207,-0.2734375,0.14453125,0.3671875,-3.0234375,-6.9765625,-5.75,-0.01171875,0.33203125,-0.2265625
325,3194650,3494650,0.240234375,0.863220215,-0.440368652,0.0564575195,-0.2734375,0.14453125,0.3671875,-3.0234375,-6.9765625,-5.75,-0.017578125,0.58203125,-0.296875
326,3199082,3499082,0.24029541,0.863830566,-0.439575195,0.0531005859,-0.40625,0.15234375,0.390625,-2.9296875,-6.984375,-5.7734375,-0.017578125,0.58203125,-0.296875
327,3213579,3513579,0.240478516,0.864562988,-0.438598633,0.0486450195,-0.40625,0.15234375,0.390625,-2.9296875,-6.984375,-5.7734375,-0.01953125,0.912109375,-0.41796875
328,3225006,3525006,0.240661621,0.86541748,-0.43737793,0.0432128906,-0.30859375,0.44140625,0.69921875,-2.796875,-7.0078125,-5.8125,-0.01953125,0.912109375,-0.41796875
329,3235476,3535476,0.240783691,0.866333008,-0.435974121,0.0372314453,-0.30859375,0.44140625,0.69921875,-2.796875,-7.0078125,-5.8125,-0.052734375,1.23242188,-0.603515625
330,3239227,3539227,0.240722656,0.867492676,-0.434265137,0.0303344727,-0.6484375,0.6953125,0.68359375,-2.609375,-7.03125,-5.875,-0.052734375,1.23242188,-0.603515625
331,3252765,3552765,0.240539551,0.868774414,-0.432250977,0.0230712891,-0.6484375,0.6953125,0.68359375,-2.609375,-7.03125,-5.875,-0.115234375,1.38671875,-0.748046875
332,3259212,3559212,0.240234375,0.870178223,-0.429931641,0.0150146484,-1.359375,0.8359375,0.7265625,-2.359375,-7.0546875,-5.953125,-0.115234375,1.38671875,-0.748046875
333,3276392,3576392,0.239929199,0.871643066,-0.427307129,0.0068359375,-1.359375,0.8359375,0.7265625,-2.359375,-7.0546875,-5.953125,-0.205078125,1.59765625,-0.83203125
334,3280146,3580146,-0.239807129,-0.87310791,0.424438477,0.00201416016,-1.3046875,0.57421875,0.3984375,-2.0703125,-7.0625,-6.046875,-0.205078125,1.59765625,-0.83203125
335,3292778,3592778,-0.239868164,-0.874389648,0.421691895,0.0107421875,-1.3046875,0.57421875,0.3984375,-2.0703125,-7.0625,-6.046875,-0.150390625,1.81445312,-0.82421875
336,3302967,3602967,-0.240234375,-0.875427246,0.418884277,0.0208740234,-1.0859375,-0.10546875,0.09375,-1.75,-7.0703125,-6.125,-0.150390625,1.81445312,-0.82421875
337,3315908,3615908,-0.240722656,-0.876220703,0.416381836,0.0311889648,-1.0859375,-0.10546875,0.09375,-1.75,-7.0703125,-6.125,0.033203125,2.01171875,-0.830078125
338,3321081,3621081,-0.241149902,-0.876708984,0.4140625,0.0414428711,-1.01953125,-0.24609375,0.35546875,-1.3984375,-7.0859375,-6.1953125,0.033203125,2.01171875,-0.830078125
339,3337530,3637530,-0.241333008,-0.877258301,0.411560059,0.0526123047,-1.01953125,-0.24609375,0.35546875,-1.3984375,-7.0859375,-6.1953125,0.046875,1.96875,-0.923828125
340,3341662,3641662,-0.241088867,-0.877807617,0.409057617,0.0631713867,-1.73828125,-0.13671875,0.28515625,-1.0234375,-7.1171875,-6.2421875,0.046875,1.96875,-0.923828125
341,3353640,3653640,-0.24029541,-0.878540039,0.406188965,0.0736694336,-1.73828125,-0.13671875,0.28515625,-1.0234375,-7.1171875,-6.2421875,-0.080078125,1.91210938,-1.1484375
342,3357673,3657673,-0.239013672,-0.879394531,0.403076172,0.0841674805,-1.46875,0.29296875,-0.10546875,-0.640625,-7.125,-6.2734375,-0.080078125,1.91210938,-1.1484375
343,3377212,3677212,-0.237609863,-0.880126953,0.399780273,0.0954589844,-1.46875,0.29296875,-0.10546875,-0.640625,-7.125,-6.2734375,-0.076171875,2.10351562,-1.2734375
344,3385256,3685256,-0.23638916,-0.880615234,0.396240234,0.107910156,-0.11328125,0.1484375,-0.609375,-0.234375,-7.1328125,-6.3046875,-0.076171875,2.10351562,-1.2734375
345,3395157,3695157,-0.235656738,-0.880615234,0.392883301,0.120788574,-0.11328125,0.1484375,-0.609375,-0.234375,-7.1328125,-6.3046875,0.0625,2.39257812,-1.16015625
346,3399817,3699817,-0.235473633,-0.880187988,0.390014648,0.13293457,-0.0078125,-0.28125,-0.921875,0.234375,-7.125,-6.296875,0.0625,2.39257812,-1.16015625
347,3411646,3711646,-0.235473633,-0.879272461,0.387329102,0.14630127,-0.0078125,-0.28125,-0.921875,0.234375,-7.125,-6.296875,0.271484375,2.37304688,-1.01953125
348,3419986,3719986,-0.235168457,-0.878234863,0.38494873,0.158813477,-0.72265625,-0.46484375,-0.578125,0.6796875,-7.1328125,-6.2578125,0.271484375,2.37304688,-1.01953125
349,3432580,3732580,-0.234313965,-0.877319336,0.382263184,0.171020508,-0.72265625,-0.46484375,-0.578125,0.6796875,-7.1328125,-6.2578125,0.154296875,2.1328125,-1.17578125
350,3438383,3738383,-0.232727051,-0.876831055,0.379272461,0.182189941,-1.1875,0.3828125,-0.390625,1.109375,-7.140625,-6.1796875,0.154296875,2.1328125,-1.17578125
351,3451401,3751401,-0.23046875,-0.876647949,0.375915527,0.192504883,-1.1875,0.3828125,-0.390625,1.109375,-7.140625,-6.1796875,-0.0703125,1.78320312,-1.36523438
352,3467462,3767462,-0.228027344,-0.876525879,0.372131348,0.20300293,0.234375,0.97265625,-0.66796875,1.5234375,-7.1171875,-6.1328125,-0.0703125,1.78320312,-1.36523438
353,3473828,3773828,-0.22644043,-0.876220703,0.368469238,0.212646484,0.234375,0.97265625,-0.66796875,1.5234375,-7.1171875,-6.1328125,-0.119140625,1.86523438,-1.0625
354,3479837,3779837,-0.225891113,-0.875305176,0.36505127,0.222717285,1.421875,0.3515625,-0.53125,1.90625,-7.0703125,-6.078125,-0.119140625,1.86523438,-1.0625
355,3491139,3791139,-0.226074219,-0.873657227,0.362243652,0.233337402,1.421875,0.3515625,-0.53125,1.90625,-7.0703125,-6.078125,0.21875,1.97070312,-0.68359375
356,3498445,3798445,-0.226135254,-0.871520996,0.360900879,0.242919922,0.13671875,-1.33203125,-0.5,2.2734375,-7.03125,-5.9921875,0.21875,1.97070312,-0.68359375
357,3511781,3811781,-0.225524902,-0.869262695,0.360961914,0.251342773,0.13671875,-1.33203125,-0.5,2.2734375,-7.03125,-5.9921875,0.693359375,1.3671875,-0.611328125
358,3517480,3817480,-0.224243164,-0.86730957,0.361755371,0.258178711,-0.796875,-0.69921875,-0.37109375,2.5546875,-7.0546875,-5.8515625,0.693359375,1.3671875,-0.611328125
359,3534654,3834654,-0.222229004,-0.865905762,0.361938477,0.264282227,-0.796875,-0.69921875,-0.37109375,2.5546875,-7.0546875,-5.8515625,0.34765625,0.853515625,-0.751953125
360,3543654,3843654,-0.220153809,-0.86541748,0.360656738,0.269287109,0.171875,1.78515625,0.18359375,2.7734375,-7.0859375,-5.71875,0.34765625,0.853515625,-0.751953125
361,3553698,3853698,-0.218261719,-0.865539551,0.357727051,0.274353027,0.171875,1.78515625,0.18359375,2.7734375,-7.0859375,-5.71875,-0.337890625,0.9453125,-0.87109375
362,3558606,3858606,-0.217102051,-0.865600586,0.353881836,0.279907227,1.45703125,1.35546875,-0.0546875,2.984375,-7.0390625,-5.671875,-0.337890625,0.9453125,-0.87109375
363,3570290,3870290,-0.21673584,-0.86505127,0.350463867,0.286071777,1.45703125,1.35546875,-0.0546875,2.984375,-7.0390625,-5.671875,-0.109375,1.25390625,-0.541015625
364,3579208,3879208,-0.21673584,-0.863708496,0.348693848,0.292297363,0.73046875,-1.2578125,-0.84375,3.2109375,-6.953125,-5.6484375,-0.109375,1.25390625,-0.541015625
365,3591233,3891233,-0.216674805,-0.861694336,0.348327637,0.29864502,0.73046875,-1.2578125,-0.84375,3.2109375,-6.953125,-5.6484375,0.521484375,1.22265625,-0.36328125
366,3596935,3896935,-0.216247559,-0.85925293,0.348937988,0.305175781,0.19140625,-2.22265625,-0.6484375,3.40625,-6.9453125,-5.5390625,0.521484375,1.22265625,-0.36328125
367,3613621,3913621,-0.215087891,-0.856872559,0.349487305,0.312072754,0.19140625,-2.22265625,-0.6484375,3.40625,-6.9453125,-5.5390625,0.619140625,1.21679688,-0.662109375
368,3621618,3921618,-0.21307373,-0.854980469,0.349304199,0.318786621,0.76171875,-0.27734375,1.05859375,3.6015625,-6.9765625,-5.3671875,0.619140625,1.21679688,-0.662109375
369,3631482,3931482,-0.210266113,-0.853515625,0.347961426,0.325927734,0.76171875,-0.27734375,1.05859375,3.6015625,-6.9765625,-5.3671875,0.19921875,1.0703125,-1.0390625
370,3637633,3937633,-0.207580566,-0.852783203,0.345397949,0.332214355,0.63671875,1.73828125,0.49609375,3.84375,-6.9609375,-5.2265625,0.19921875,1.0703125,-1.0390625
371,3653999,3953999,-0.205505371,-0.852416992,0.342102051,0.33782959,0.63671875,1.73828125,0.49609375,3.84375,-6.9609375,-5.2265625,-0.25,0.970703125,-0.875
372,3657731,3957731,-0.204345703,-0.851989746,0.338867188,0.342834473,1.42578125,1,-0.04296875,4.0859375,-6.875,-5.1484375,-0.25,0.970703125,-0.875
373,3671652,3971652,-0.203979492,-0.851074219,0.336181641,0.347961426,1.42578125,1,-0.04296875,4.0859375,-6.875,-5.1484375,-0.072265625,1.02148438,-0.42578125
374,3675766,3975766,-0.204162598,-0.84954834,0.334594727,0.353027344,1.61328125,-0.94921875,0.06640625,4.28125,-6.8046875,-5.1015625,-0.072265625,1.02148438,-0.42578125
375,3693219,3993219,-0.204284668,-0.847351074,0.333740234,0.359008789,1.61328125,-0.94921875,0.06640625,4.28125,-6.8046875,-5.1015625,0.310546875,1.23632812,-0.373046875
376,3702260,4002260,-0.203796387,-0.845214844,0.333190918,0.364807129,0.9921875,-1.4296875,1.13671875,4.4453125,-6.78125,-4.984375,0.310546875,1.23632812,-0.373046875
377,3712616,4012616,-0.202331543,-0.843444824,0.332580566,0.370117188,0.9921875,-1.4296875,1.13671875,4.4453125,-6.78125,-4.984375,0.2890625,0.81640625,-0.634765625
378,3716239,4016239,-0.200500488,-0.842590332,0.331359863,0.374267578,0.28125,0.21484375,1.03125,4.6171875,-6.78125,-4.84375,0.2890625,0.81640625,-0.634765625
379,3732846,4032846,-0.198608398,-0.842407227,0.329162598,0.377502441,0.28125,0.21484375,1.03125,4.6171875,-6.78125,-4.84375,-0.2109375,0.4375,-0.638671875
380,3736463,4036463,-0.197509766,-0.842712402,0.326599121,0.379699707,0.78515625,1.953125,0.7421875,4.765625,-6.71875,-4.78125,-0.2109375,0.4375,-0.638671875
381,3751290,4051290,-0.197021484,-0.843017578,0.323730469,0.381713867,0.78515625,1.953125,0.7421875,4.765625,-6.71875,-4.78125,-0.36328125,0.390625,-0.35546875
382,3755185,4055185,-0.196899414,-0.843017578,0.321655273,0.383544922,1.25,0.14453125,0.671875,4.875,-6.6328125,-4.7890625,-0.36328125,0.390625,-0.35546875
383,3773550,4073550,-0.196716309,-0.842651367,0.320129395,0.385620117,1.25,0.14453125,0.671875,4.875,-6.6328125,-4.7890625,-0.060546875,0.4140625,-0.263671875
384,3782616,4082616,-0.196166992,-0.842224121,0.319213867,0.387695312,0.796875,-0.4765625,0.578125,4.9453125,-6.5859375,-4.7734375,-0.060546875,0.4140625,-0.263671875
385,3793742,4093742,-0.19519043,-0.84173584,0.31854248,0.389770508,0.796875,-0.4765625,0.578125,4.9453125,-6.5859375,-4.7734375,0.1171875,0.33203125,-0.357421875
386,3798293,4098293,-0.193786621,-0.841308594,0.317932129,0.391845703,0.48828125,0.2265625,0.265625,5.0234375,-6.5625,-4.7265625,0.1171875,0.33203125,-0.357421875
387,3811814,4111814,-0.192260742,-0.841125488,0.317077637,0.393676758,0.48828125,0.2265625,0.265625,5.0234375,-6.5625,-4.7265625,0.025390625,0.25390625,-0.47265625
388,3815405,4115405,-0.190795898,-0.841125488,0.315917969,0.395385742,0.48828125,0.7265625,0.33984375,5.1015625,-6.5234375,-4.6875,0.025390625,0.25390625,-0.47265625
389,3829386,4129386,-0.18939209,-0.841125488,0.314453125,0.397216797,0.48828125,0.7265625,0.33984375,5.1015625,-6.5234375,-4.6875,-0.080078125,0.3046875,-0.4375
390,3835581,4135581,-0.188354492,-0.841003418,0.312927246,0.399169922,0.47265625,0.37109375,0.59375,5.1953125,-6.4765625,-4.671875,-0.080078125,0.3046875,-0.4375
391,3853354,4153354,-0.187438965,-0.840820312,0.311645508,0.400939941,0.47265625,0.37109375,0.59375,5.1953125,-6.4765625,-4.671875,-0.046875,0.287109375,-0.33984375
392,3863131,4163131,-0.186645508,-0.840637207,0.31048584,0.402526855,0.078125,-0.01953125,0.5625,5.28125,-6.4296875,-4.640625,-0.046875,0.287109375,-0.33984375
393,3868554,4168554,-0.185974121,-0.840515137,0.309509277,0.403869629,0.078125,-0.01953125,0.5625,5.28125,-6.4296875,-4.640625,-0.05078125,0.251953125,-0.25390625
394,3876341,4176341,-0.185424805,-0.840209961,0.308654785,0.405395508,0.32421875,0.171875,1.04296875,5.34375,-6.390625,-4.625,-0.05078125,0.251953125,-0.25390625
395,3892020,4192020,-0.184936523,-0.83984375,0.308166504,0.406799316,0.32421875,0.171875,1.04296875,5.34375,-6.390625,-4.625,0.05078125,0.25,-0.203125
396,3899448,4199448,-0.184387207,-0.839538574,0.307800293,0.407958984,0.26953125,0.30078125,1.28125,5.3984375,-6.3671875,-4.59375,0.05078125,0.25,-0.203125
397,3910597,4210597,-0.183898926,-0.839233398,0.307495117,0.408996582,0.26953125,0.30078125,1.28125,5.3984375,-6.3671875,-4.59375,0.046875,0.142578125,-0.140625
398,3914732,4214732,-0.183532715,-0.839050293,0.307373047,0.409667969,0.3046875,0.3984375,1.21875,5.4375,-6.3515625,-4.5703125,0.046875,0.142578125,-0.140625
399,3933007,4233007,-0.183227539,-0.838928223,0.307373047,0.410095215,0.3046875,0.3984375,1.21875,5.4375,-6.3515625,-4.5703125,0.037109375,0.046875,-0.04296875
400,3940510,4240510,-0.183166504,-0.838867188,0.307373047,0.410217285,0.3203125,-0.02734375,0.96484375,5.4609375,-6.34375,-4.546875,0.037109375,0.046875,-0.04296875
401,3949278,4249278,-0.183166504,-0.838867188,0.307434082,0.41015625,0.3203125,-0.02734375,0.96484375,5.4609375,-6.34375,-4.546875,-0.015625,-0.029296875,0.029296875
402,3955634,4255634,-0.183410645,-0.838989258,0.307434082,0.409912109,0.359375,-0.10546875,0.69140625,5.4609375,-6.34375,-4.5390625,-0.015625,-0.029296875,0.029296875
403,3972959,4272959,-0.183776855,-0.839111328,0.307373047,0.409484863,0.359375,-0.10546875,0.69140625,5.4609375,-6.34375,-4.5390625,-0.0625,-0.0546875,0.091796875
404,3977266,4277266,-0.184204102,-0.839172363,0.307373047,0.409057617,0.47265625,-0.18359375,0.734375,5.4609375,-6.34375,-4.546875,-0.0625,-0.0546875,0.091796875
405,3991543,4291543,-0.184753418,-0.839294434,0.307434082,0.408569336,0.47265625,-0.18359375,0.734375,5.4609375,-6.34375,-4.546875,-0.060546875,-0.0625,0.134765625
406,3995181,4295181,-0.18536377,-0.839416504,0.307556152,0.407958984,0.58203125,-0.09765625,1.01171875,5.4296875,-6.3515625,-4.5546875,-0.060546875,-0.0625,0.134765625
407,4011327,4311327,-0.186157227,-0.839538574,0.307678223,0.407165527,0.58203125,-0.09765625,1.01171875,5.4296875,-6.3515625,-4.5546875,-0.0859375,-0.125,0.197265625
408,4019504,4319504,-0.187011719,-0.83984375,0.307861328,0.40612793,0.48046875,-0.05078125,1.10546875,5.4140625,-6.359375,-4.5703125,-0.0859375,-0.125,0.197265625
409,4029044,4329044,-0.188049316,-0.840270996,0.307983398,0.404724121,0.48046875,-0.05078125,1.10546875,5.4140625,-6.359375,-4.5703125,-0.158203125,-0.234375,0.26953125
410,4035254,4335254,-0.18927002,-0.840759277,0.308044434,0.402954102,0.61328125,0.4609375,1.44140625,5.359375,-6.375,-4.6015625,-0.158203125,-0.234375,0.26953125
411,4052420,4352420,-0.190795898,-0.841430664,0.308044434,0.400817871,0.61328125,0.4609375,1.44140625,5.359375,-6.375,-4.6015625,-0.26171875,-0.34765625,0.3984375
412,4057104,4357104,-0.192626953,-0.842224121,0.308166504,0.398193359,0.63671875,0.515625,1.609375,5.296875,-6.390625,-4.65625,-0.26171875,-0.34765625,0.3984375
413,4068286,4368286,-0.194702148,-0.843200684,0.308410645,0.394958496,0.63671875,0.515625,1.609375,5.296875,-6.390625,-4.65625,-0.30859375,-0.560546875,0.568359375
414,4074519,4374519,-0.196838379,-0.844360352,0.308959961,0.390991211,0.69921875,0.30859375,1.7734375,5.1953125,-6.4140625,-4.7421875,-0.30859375,-0.560546875,0.568359375
415,4093367,4393367,-0.198913574,-0.84564209,0.309997559,0.386352539,0.69921875,0.30859375,1.7734375,5.1953125,-6.4140625,-4.7421875,-0.236328125,-0.908203125,0.708984375
416,4101244,4401244,-0.200927734,-0.847106934,0.311401367,0.380859375,0.7734375,0.30859375,1.4921875,5.046875,-6.453125,-4.84375,-0.236328125,-0.908203125,0.708984375
417,4111652,4411652,-0.203125,-0.848632812,0.313354492,0.374572754,0.7734375,0.30859375,1.4921875,5.046875,-6.453125,-4.84375,-0.166015625,-1.14648438,0.87890625
418,4116430,4416430,-0.205383301,-0.850158691,0.315551758,0.368041992,1.12109375,0.13671875,0.58203125,4.8515625,-6.5078125,-4.96875,-0.166015625,-1.14648438,0.87890625
419,4130958,4430958,-0.207824707,-0.851745605,0.318054199,0.360717773,1.12109375,0.13671875,0.58203125,4.8515625,-6.5078125,-4.96875,-0.1796875,-1.33007812,0.99609375
420,4134693,4434693,-0.210205078,-0.85333252,0.3203125,0.353515625,1.02734375,-0.29296875,0.33203125,4.6015625,-6.578125,-5.1015625,-0.1796875,-1.33007812,0.99609375
421,4147308,4447308,-0.212890625,-0.855102539,0.322692871,0.34552002,1.02734375,-0.29296875,0.33203125,4.6015625,-6.578125,-5.1015625,-0.24609375,-1.39453125,1.0390625
422,4153500,4453500,-0.215454102,-0.856750488,0.324951172,0.337463379,0.9921875,-0.56640625,0.08984375,4.328125,-6.6484375,-5.2421875,-0.24609375,-1.39453125,1.0390625
423,4171513,4471513,-0.218078613,-0.858459473,0.327453613,0.328979492,0.9921875,-0.56640625,0.08984375,4.328125,-6.6484375,-5.2421875,-0.22265625,-1.51953125,1.10546875
424,4180651,4480651,-0.22052002,-0.859985352,0.329956055,0.320739746,0.9453125,-0.7734375,0.171875,4.03125,-6.7109375,-5.3984375,-0.22265625,-1.51953125,1.10546875
425,4191085,4491085,-0.222839355,-0.861694336,0.333068848,0.311279297,0.9453125,-0.7734375,0.171875,4.03125,-6.7109375,-5.3984375,-0.10546875,-1.70898438,1.11132812
426,4195516,4495516,-0.224853516,-0.86328125,0.336364746,0.301757812,0.53125,-0.6953125,-0.53125,3.71875,-6.7890625,-5.5390625,-0.10546875,-1.70898438,1.11132812
427,4210585,4510585,-0.226928711,-0.864990234,0.33984375,0.291137695,0.53125,-0.6953125,-0.53125,3.71875,-6.7890625,-5.5390625,-0.1484375,-2.02929688,1.2265625
428,4214304,4514304,-0.229003906,-0.866821289,0.343078613,0.280151367,0.31640625,-0.1640625,-1.15625,3.359375,-6.859375,-5.6796875,-0.1484375,-2.02929688,1.2265625
429,4229902,4529902,-0.231140137,-0.86895752,0.346618652,0.267150879,0.31640625,-0.1640625,-1.15625,3.359375,-6.859375,-5.6796875,-0.271484375,-2.32617188,1.2890625
430,4233851,4533851,-0.232910156,-0.870910645,0.34954834,0.255126953,-0.47265625,0.08203125,-1.56640625,2.921875,-6.9140625,-5.84375,-0.271484375,-2.32617188,1.2890625
431,4250272,4550272,-0.234741211,-0.87310791,0.352661133,0.241271973,-0.47265625,0.08203125,-1.56640625,2.921875,-6.9140625,-5.84375,-0.380859375,-2.46289062,1.31835938
432,4258610,4558610,-0.23651123,-0.875061035,0.355407715,0.228149414,-0.48046875,-0.00390625,-1.16796875,2.46875,-6.9453125,-6.015625,-0.380859375,-2.46289062,1.31835938
433,4269001,4569001,-0.238342285,-0.876831055,0.358520508,0.214111328,-0.48046875,-0.00390625,-1.16796875,2.46875,-6.9453125,-6.015625,-0.28515625,-2.59765625,1.41015625
434,4272969,4572969,-0.239990234,-0.878234863,0.362304688,0.199768066,-0.609375,-0.63671875,-0.93359375,1.984375,-6.9609375,-6.171875,-0.28515625,-2.59765625,1.41015625
435,4288297,4588297,-0.241394043,-0.879089355,0.367370605,0.184265137,-0.609375,-0.63671875,-0.93359375,1.984375,-6.9609375,-6.171875,0.162109375,-2.84765625,1.48828125
436,4293078,4593078,-0.242431641,-0.879455566,0.372802734,0.169799805,-0.56640625,-1.05859375,-1.09375,1.4453125,-7,-6.28125,0.162109375,-2.84765625,1.48828125
437,4307475,4607475,-0.243591309,-0.879394531,0.37878418,0.154296875,-0.56640625,-1.05859375,-1.09375,1.4453125,-7,-6.28125,0.27734375,-2.92382812,1.57617188
438,4312738,4612738,-0.244750977,-0.879089355,0.38494873,0.138427734,-0.3046875,-0.796875,-0.5546875,0.875,-7.0703125,-6.3203125,0.27734375,-2.92382812,1.57617188
439,4328148,4628148,-0.245910645,-0.878417969,0.390808105,0.12310791,-0.3046875,-0.796875,-0.5546875,0.875,-7.0703125,-6.3203125,0.2890625,-2.77539062,1.52539062
440,4336102,4636102,-0.246948242,-0.877624512,0.396057129,0.109191895,-0.20703125,-0.703125,-0.41796875,0.28125,-7.125,-6.3046875,0.2890625,-2.77539062,1.52539062
441,4348161,4648161,-0.248046875,-0.876525879,0.401489258,0.0948486328,-0.20703125,-0.703125,-0.41796875,0.28125,-7.125,-6.3046875,0.30859375,-2.54882812,1.44726562
442,4352376,4652376,-0.249145508,-0.875244141,0.406433105,0.0817871094,-0.7734375,-0.3203125,-0.3046875,-0.265625,-7.1640625,-6.265625,0.30859375,-2.54882812,1.44726562
443,4367946,4667946,-0.250427246,-0.873657227,0.411499023,0.068359375,-0.7734375,-0.3203125,-0.3046875,-0.265625,-7.1640625,-6.265625,0.294921875,-2.37109375,1.4453125
444,4372721,4672721,-0.251647949,-0.872070312,0.41595459,0.0561523438,-1.6875,0.1328125,-0.18359375,-0.765625,-7.1953125,-6.1953125,0.294921875,-2.37109375,1.4453125
445,4388316,4688316,-0.252868652,-0.870117188,0.420959473,0.0427246094,-1.6875,0.1328125,-0.18359375,-0.765625,-7.1953125,-6.1953125,0.33203125,-2.33398438,1.38085938
446,4394204,4694204,-0.25378418,-0.868164062,0.425415039,0.0308837891,-1.6484375,-0.01171875,-0.3046875,-1.265625,-7.203125,-6.109375,0.33203125,-2.33398438,1.38085938
447,4406979,4706979,-0.254760742,-0.865905762,0.430114746,0.0187988281,-1.6484375,-0.01171875,-0.3046875,-1.265625,-7.203125,-6.109375,0.390625,-2.17773438,1.29296875
448,4415161,4715161,-0.255615234,-0.863525391,0.434631348,0.00708007812,-1.07421875,0.2265625,0.2265625,-1.7265625,-7.2109375,-5.9921875,0.390625,-2.17773438,1.29296875
449,4427236,4727236,0.256408691,0.861206055,-0.438842773,0.00421142578,-1.07421875,0.2265625,0.2265625,-1.7265625,-7.2109375,-5.9921875,0.322265625,-2.0546875,1.20703125
450,4432948,4732948,0.257019043,0.858886719,-0.442749023,0.0150146484,-1.01953125,0.4453125,0.31640625,-2.1640625,-7.203125,-5.8515625,0.322265625,-2.0546875,1.20703125
451,4446348,4746348,0.257446289,0.856689453,-0.446350098,0.0247802734,-1.01953125,0.4453125,0.31640625,-2.1640625,-7.203125,-5.8515625,0.337890625,-1.88476562,1.07226562
452,4453898,4753898,0.257873535,0.854125977,-0.450195312,0.0350341797,-0.51953125,0.125,0.3359375,-2.546875,-7.1875,-5.71875,0.337890625,-1.88476562,1.07226562
453,4467364,4767364,0.258300781,0.851806641,-0.453613281,0.0438232422,-0.51953125,0.125,0.3359375,-2.546875,-7.1875,-5.71875,0.359375,-1.6796875,0.98828125
454,4471580,4771580,0.258850098,0.849304199,-0.457092285,0.0522460938,-0.09375,0.1953125,0.41796875,-2.8984375,-7.1796875,-5.5703125,0.359375,-1.6796875,0.98828125
455,4486239,4786239,0.259399414,0.846801758,-0.460449219,0.0601806641,-0.09375,0.1953125,0.41796875,-2.8984375,-7.1796875,-5.5703125,0.4140625,-1.4375,0.888671875
456,4495832,4795832,0.25994873,0.844177246,-0.463867188,0.0676269531,0.09765625,0.37109375,0.38671875,-3.203125,-7.1640625,-5.421875,0.4140625,-1.4375,0.888671875
457,4506757,4806757,0.260253906,0.841796875,-0.467041016,0.0740966797,0.09765625,0.37109375,0.38671875,-3.203125,-7.1640625,-5.421875,0.421875,-1.18359375,0.689453125
458,4513084,4813084,0.260559082,0.839538574,-0.469970703,0.0798339844,0.0546875,0.70703125,0.390625,-3.46875,-7.15625,-5.2734375,0.421875,-1.18359375,0.689453125
459,4529021,4829021,0.260681152,0.837463379,-0.472717285,0.085144043,0.0546875,0.70703125,0.390625,-3.46875,-7.15625,-5.2734375,0.33203125,-0.99609375,0.548828125
460,4532631,4832631,0.260620117,0.83581543,-0.474853516,0.0895996094,-0.4765625,1.08203125,0.2578125,-3.6640625,-7.1484375,-5.140625,0.33203125,-0.99609375,0.548828125
461,4547694,4847694,0.260375977,0.83404541,-0.477172852,0.0942382812,-0.4765625,1.08203125,0.2578125,-3.6640625,-7.1484375,-5.140625,0.275390625,-0.888671875,0.419921875
462,4553532,4853532,0.260192871,0.832580566,-0.479064941,0.0982055664,-0.2734375,0.77734375,-0.01171875,-3.828125,-7.1484375,-5.0234375,0.275390625,-0.888671875,0.419921875
463,4568757,4868757,0.260070801,0.831115723,-0.480834961,0.101928711,-0.2734375,0.77734375,-0.01171875,-3.828125,-7.1484375,-5.0234375,0.2265625,-0.73828125,0.35546875
464,4576838,4876838,0.259887695,0.829833984,-0.482421875,0.10534668,-0.29296875,1.1875,-0.0703125,-3.9609375,-7.140625,-4.9296875,0.2265625,-0.73828125,0.35546875
465,4584303,4884303,0.25982666,0.828674316,-0.483764648,0.108520508,-0.29296875,1.1875,-0.0703125,-3.9609375,-7.140625,-4.9296875,0.14453125,-0.572265625,0.3203125
466,4593691,4893691,0.25982666,0.827636719,-0.484863281,0.111328125,-0.0234375,1.14453125,0.08203125,-4.078125,-7.1328125,-4.8515625,0.14453125,-0.572265625,0.3203125
467,4606149,4906149,0.259887695,0.826721191,-0.485839844,0.113891602,-0.0234375,1.14453125,0.08203125,-4.078125,-7.1328125,-4.8515625,0.09375,-0.470703125,0.27734375
468,4611881,4911881,0.25982666,0.825927734,-0.486572266,0.116271973,-0.55078125,1.13671875,0.13671875,-4.1640625,-7.125,-4.7890625,0.09375,-0.470703125,0.27734375
469,4628512,4928512,0.259765625,0.825317383,-0.487182617,0.118591309,-0.55078125,1.13671875,0.13671875,-4.1640625,-7.125,-4.7890625,0.01171875,-0.423828125,0.220703125
470,4632115,4932115,0.25958252,0.824768066,-0.487609863,0.120727539,-0.51171875,0.96484375,0.36328125,-4.2421875,-7.109375,-4.75,0.01171875,-0.423828125,0.220703125
471,4645342,4945342,0.259338379,0.824279785,-0.488098145,0.122802734,-0.51171875,0.96484375,0.36328125,-4.2421875,-7.109375,-4.75,0,-0.41015625,0.17578125
472,4653788,4953788,0.259033203,0.823791504,-0.488525391,0.124816895,-0.1328125,0.828125,0.25,-4.3125,-7.0859375,-4.7109375,0,-0.41015625,0.17578125
473,4666259,4966259,0.258789062,0.823364258,-0.489013672,0.126525879,-0.1328125,0.828125,0.25,-4.3125,-7.0859375,-4.7109375,0.029296875,-0.30859375,0.134765625
474,4671931,4971931,0.258666992,0.822937012,-0.489379883,0.127746582,0.12109375,0.46875,0.01953125,-4.375,-7.0703125,-4.671875,0.029296875,-0.30859375,0.134765625
475,4684937,4984937,0.258483887,0.822692871,-0.489746094,0.128662109,0.12109375,0.46875,0.01953125,-4.375,-7.0703125,-4.671875,0.013671875,-0.140625,0.033203125
476,4690655,4990655,0.258178711,0.822631836,-0.489807129,0.12902832,0.3046875,0.734375,0.22265625,-4.40625,-7.0703125,-4.6484375,0.013671875,-0.140625,0.033203125
477,4705309,5005309,0.257751465,0.822814941,-0.489807129,0.12902832,0.3046875,0.734375,0.22265625,-4.40625,-7.0703125,-4.6484375,-0.0546875,-0.01171875,-0.119140625
478,4711358,5011358,0.257080078,0.823181152,-0.489624023,0.128723145,-0.00390625,0.62109375,0.30078125,-4.40625,-7.0703125,-4.6484375,-0.0546875,-0.01171875,-0.119140625
479,4724362,5024362,0.256286621,0.823669434,-0.489379883,0.128051758,-0.00390625,0.62109375,0.30078125,-4.40625,-7.0703125,-4.6484375,-0.07421875,0.05859375,-0.23828125
480,4732092,5032092,0.255310059,0.824279785,-0.489135742,0.127197266,-0.25390625,0.62109375,0.30078125,-4.3828125,-7.0703125,-4.6484375,-0.07421875,0.05859375,-0.23828125
481,4746314,5046314,0.254394531,0.824890137,-0.488769531,0.126037598,-0.25390625,0.62109375,0.30078125,-4.3828125,-7.0703125,-4.6484375,-0.08203125,0.171875,-0.30859375
482,4750567,5050567,0.253601074,0.825622559,-0.48840332,0.124511719,-0.1875,0.67578125,0.28515625,-4.3359375,-7.0859375,-4.671875,-0.08203125,0.171875,-0.30859375
483,4763933,5063933,0.252868652,0.826538086,-0.487792969,0.122497559,-0.1875,0.67578125,0.28515625,-4.3359375,-7.0859375,-4.671875,-0.1015625,0.34375,-0.345703125
484,4770848,5070848,0.252258301,0.827453613,-0.487060547,0.120117188,-0.3359375,0.54296875,0.171875,-4.265625,-7.109375,-4.7109375,-0.1015625,0.34375,-0.345703125
485,4783992,5083992,0.251831055,0.828552246,-0.48614502,0.117126465,-0.3359375,0.54296875,0.171875,-4.265625,-7.109375,-4.7109375,-0.130859375,0.59375,-0.416015625
486,4790175,5090175,0.251586914,0.829833984,-0.485046387,0.113586426,-0.390625,0.59765625,0.33984375,-4.171875,-7.125,-4.765625,-0.130859375,0.59375,-0.416015625
487,4805230,5105230,0.251464844,0.831420898,-0.483459473,0.108703613,-0.390625,0.59765625,0.33984375,-4.171875,-7.125,-4.765625,-0.1875,0.974609375,-0.556640625
488,4814843,5114843,0.251464844,0.833251953,-0.481506348,0.102783203,-0.1484375,0.69921875,0.58203125,-4.03125,-7.1484375,-4.8515625,-0.1875,0.974609375,-0.556640625
489,4825734,5125734,0.251647949,0.835327148,-0.479309082,0.0959472656,-0.1484375,0.69921875,0.58203125,-4.03125,-7.1484375,-4.8515625,-0.2265625,1.4375,-0.73828125
490,4829973,5129973,0.251831055,0.837463379,-0.476928711,0.0884399414,-0.09765625,0.68359375,0.62890625,-3.8125,-7.171875,-4.9765625,-0.2265625,1.4375,-0.73828125
491,4846679,5146679,0.251831055,0.83996582,-0.473999023,0.0794677734,-0.09765625,0.68359375,0.62890625,-3.8125,-7.171875,-4.9765625,-0.294921875,1.69726562,-0.9375
492,4850635,5150635,0.251831055,0.842468262,-0.471008301,0.0705566406,-0.484375,0.6015625,0.5859375,-3.5390625,-7.203125,-5.125,-0.294921875,1.69726562,-0.9375
493,4865157,5165157,0.251831055,0.845092773,-0.467651367,0.0604858398,-0.484375,0.6015625,0.5859375,-3.5390625,-7.203125,-5.125,-0.283203125,1.89257812,-1.015625
494,4869356,5169356,0.25189209,0.847473145,-0.464477539,0.0507202148,-1.04296875,0.1328125,0.55859375,-3.2109375,-7.234375,-5.2890625,-0.283203125,1.89257812,-1.015625
495,4884802,5184802,0.25189209,0.850036621,-0.460876465,0.0396118164,-1.04296875,0.1328125,0.55859375,-3.2109375,-7.234375,-5.2890625,-0.287109375,2.03320312,-1.078125
496,4892470,5192470,0.251953125,0.852478027,-0.457092285,0.0286254883,-1.3671875,0.5078125,0.25390625,-2.8515625,-7.265625,-5.4453125,-0.287109375,2.03320312,-1.078125
497,4904575,5204575,0.252075195,0.854919434,-0.453125,0.0170898438,-1.3671875,0.5078125,0.25390625,-2.8515625,-7.265625,-5.4453125,-0.3203125,2.26367188,-1.15429688
498,4909838,5209838,0.252319336,0.857177734,-0.448974609,0.0048828125,-1.265625,0.33984375,0.265625,-2.453125,-7.2890625,-5.609375,-0.3203125,2.26367188,-1.15429688
499,4925024,5225024,-0.252563477,-0.859130859,0.445068359,0.00756835938,-1.265625,0.33984375,0.265625,-2.453125,-7.2890625,-5.609375,-0.205078125,2.546875,-1.2578125
500,4929816,5229816,-0.252624512,-0.860961914,0.440979004,0.0213623047,-1.12109375,-0.25390625,0.16796875,-2.0234375,-7.3046875,-5.7421875,-0.205078125,2.546875,-1.2578125
501,4943905,5243905,-0.252197266,-0.862670898,0.436950684,0.0358276367,-1.12109375,-0.25390625,0.16796875,-2.0234375,-7.3046875,-5.7421875,-0.1015625,2.53515625,-1.4453125
502,4949145,5249145,-0.251403809,-0.864196777,0.432983398,0.0498046875,-1.58984375,-0.37109375,0.39453125,-1.515625,-7.34375,-5.8515625,-0.1015625,2.53515625,-1.4453125
503,4964864,5264864,-0.250610352,-0.865539551,0.428894043,0.0638427734,-1.58984375,-0.37109375,0.39453125,-1.515625,-7.34375,-5.8515625,-0.1015625,2.52929688,-1.4453125
504,4973476,5273476,-0.249816895,-0.866638184,0.424987793,0.0771484375,-1.29296875,-0.39453125,-0.32421875,-1.0078125,-7.359375,-5.9375,-0.1015625,2.52929688,-1.4453125
505,4984029,5284029,-0.249023438,-0.867675781,0.420410156,0.0916748047,-1.29296875,-0.39453125,-0.32421875,-1.0078125,-7.359375,-5.9375,-0.17578125,2.62304688,-1.4609375
506,4989271,5289271,-0.248474121,-0.868652344,0.415344238,0.106018066,-0.546875,0.87890625,-0.34765625,-0.4921875,-7.3671875,-5.9921875,-0.17578125,2.62304688,-1.4609375
507,5003552,5303552,-0.248352051,-0.86932373,0.410095215,0.119995117,-0.546875,0.87890625,-0.34765625,-0.4921875,-7.3671875,-5.9921875,-0.306640625,2.84570312,-1.36132812
508,5009513,5309513,-0.248657227,-0.869812012,0.404052734,0.135498047,-0.29296875,0.55078125,-0.72265625,0.0234375,-7.34375,-6.0390625,-0.306640625,2.84570312,-1.36132812
509,5023607,5323607,-0.249328613,-0.869750977,0.398498535,0.150146484,-0.29296875,0.55078125,-0.72265625,0.0234375,-7.34375,-6.0390625,-0.2109375,2.92382812,-1.21484375
510,5028841,5328841,-0.25,-0.869384766,0.393127441,0.164733887,-0.71875,-0.76171875,-0.546875,0.5625,-7.296875,-6.0625,-0.2109375,2.92382812,-1.21484375
511,5043565,5343565,-0.250427246,-0.868774414,0.388061523,0.178649902,-0.71875,-0.76171875,-0.546875,0.5625,-7.296875,-6.0625,-0.125,2.62695312,-1.16992188
512,5052467,5352467,-0.250061035,-0.868041992,0.383666992,0.191894531,-1.5703125,-1.4140625,-0.60546875,1.0703125,-7.2578125,-6.0390625,-0.125,2.62695312,-1.16992188
513,5063777,5363777,-0.248901367,-0.867126465,0.380432129,0.203552246,-1.5703125,-1.4140625,-0.60546875,1.0703125,-7.2578125,-6.0390625,0.224609375,2.09375,-1.25585938
514,5072751,5372751,-0.246887207,-0.866027832,0.377746582,0.215209961,-0.953125,-1.20703125,-1.015625,1.5234375,-7.234375,-5.9765625,0.224609375,2.09375,-1.25585938
515,5084296,5384296,-0.244873047,-0.864868164,0.376281738,0.224609375,-0.953125,-1.20703125,-1.015625,1.5234375,-7.234375,-5.9765625,0.4921875,1.59960938,-1.09765625
516,5090423,5390423,-0.242492676,-0.863098145,0.376220703,0.233825684,-0.59765625,-0.52734375,-1.23046875,1.8984375,-7.2265625,-5.875,0.4921875,1.59960938,-1.09765625
517,5102630,5402630,-0.239746094,-0.861083984,0.377502441,0.242004395,-0.59765625,-0.52734375,-1.23046875,1.8984375,-7.2265625,-5.875,0.984375,1.13671875,-0.9375
518,5108321,5408321,-0.236633301,-0.859069824,0.378845215,0.249938965,0.66796875,1.1015625,0.51171875,2.203125,-7.28125,-5.703125,0.984375,1.13671875,-0.9375
519,5125880,5425880,-0.233764648,-0.857543945,0.379150391,0.257385254,0.66796875,1.1015625,0.51171875,2.203125,-7.28125,-5.703125,0.560546875,1.16796875,-0.990234375
520,5134540,5434540,-0.230957031,-0.856201172,0.37878418,0.264709473,1.828125,0.609375,0.33984375,2.4609375,-7.328125,-5.53125,0.560546875,1.16796875,-0.990234375
521,5142946,5442946,-0.227478027,-0.854919434,0.378234863,0.272583008,1.828125,0.609375,0.33984375,2.4609375,-7.328125,-5.53125,0.583984375,1.171875,-1.23632812
522,5152868,5452868,-0.223510742,-0.853393555,0.378051758,0.280761719,1.421875,-0.1953125,-0.4140625,2.75,-7.328125,-5.390625,0.583984375,1.171875,-1.23632812
523,5161863,5461863,-0.219909668,-0.8515625,0.37878418,0.288024902,1.421875,-0.1953125,-0.4140625,2.75,-7.328125,-5.390625,0.904296875,1.0234375,-1.00585938
524,5169442,5469442,-0.216125488,-0.849487305,0.380310059,0.295043945,-0.19921875,0.05078125,-1.34375,3.03125,-7.34375,-5.2265625,0.904296875,1.0234375,-1.00585938
525,5182611,5482611,-0.212219238,-0.847473145,0.382019043,0.301391602,-0.19921875,0.05078125,-1.34375,3.03125,-7.34375,-5.2265625,0.927734375,0.798828125,-0.953125
526,5191752,5491752,-0.208251953,-0.845458984,0.383544922,0.307800293,0.37109375,-0.953125,-0.54296875,3.265625,-7.375,-5.03125,0.927734375,0.798828125,-0.953125
527,5202901,5502901,-0.204467773,-0.843444824,0.38458252,0.314453125,0.37109375,-0.953125,-0.54296875,3.265625,-7.375,-5.03125,0.857421875,1.0703125,-1.125
528,5211225,5511225,-0.200378418,-0.841369629,0.384765625,0.32232666,1.1328125,0.375,0.2265625,3.5,-7.3984375,-4.84375,0.857421875,1.0703125,-1.125
529,5225059,5525059,-0.196594238,-0.83972168,0.383728027,0.330078125,1.1328125,0.375,0.2265625,3.5,-7.3984375,-4.84375,0.37109375,1.1484375,-1.22851562
530,5232244,5532244,-0.19342041,-0.838562012,0.381774902,0.337097168,1.2265625,1.37890625,0.35546875,3.7890625,-7.3671875,-4.6640625,0.37109375,1.1484375,-1.22851562
531,5241850,5541850,-0.190429688,-0.837768555,0.37890625,0.34387207,1.2265625,1.37890625,0.35546875,3.7890625,-7.3671875,-4.6640625,-0.048828125,0.984375,-1.1015625
532,5248750,5548750,-0.188110352,-0.837463379,0.375610352,0.349487305,0.8828125,1.109375,0.0703125,4.0546875,-7.2890625,-4.5703125,-0.048828125,0.984375,-1.1015625
533,5261935,5561935,-0.186401367,-0.837341309,0.372253418,0.354248047,0.8828125,1.109375,0.0703125,4.0546875,-7.2890625,-4.5703125,-0.259765625,0.76171875,-0.771484375
534,5269877,5569877,-0.18536377,-0.836914062,0.369567871,0.358642578,1.31640625,0.32421875,0.296875,4.2734375,-7.1953125,-4.53125,-0.259765625,0.76171875,-0.771484375
535,5281867,5581867,-0.184570312,-0.83581543,0.367675781,0.363525391,1.31640625,0.32421875,0.296875,4.2734375,-7.1953125,-4.53125,0.123046875,0.998046875,-0.56640625
536,5290473,5590473,-0.183776855,-0.83404541,0.366516113,0.369140625,1.34375,-0.50390625,0.3828125,4.4375,-7.1328125,-4.4609375,0.123046875,0.998046875,-0.56640625
537,5301003,5601003,-0.182800293,-0.831970215,0.365478516,0.375305176,1.34375,-0.50390625,0.3828125,4.4375,-7.1328125,-4.4609375,0.306640625,1.17773438,-0.658203125
538,5311534,5611534,-0.181396484,-0.829956055,0.364318848,0.381530762,0.8125,0.109375,0.6328125,4.625,-7.09375,-4.328125,0.306640625,1.17773438,-0.658203125
539,5321885,5621885,-0.179748535,-0.828430176,0.362915039,0.386901855,0.8125,0.109375,0.6328125,4.625,-7.09375,-4.328125,0.12890625,0.796875,-0.705078125
540,5327606,5627606,-0.178161621,-0.827636719,0.361022949,0.391113281,0.2421875,1.41015625,0.84375,4.8125,-7.0546875,-4.1953125,0.12890625,0.796875,-0.705078125
541,5340766,5640766,-0.177062988,-0.827392578,0.358459473,0.394470215,0.2421875,1.41015625,0.84375,4.8125,-7.0546875,-4.1953125,-0.29296875,0.59765625,-0.615234375
542,5349533,5649533,-0.176452637,-0.827331543,0.355163574,0.397827148,1.35546875,1.484375,1.296875,4.9609375,-6.9765625,-4.1484375,-0.29296875,0.59765625,-0.615234375
543,5361527,5661527,-0.176452637,-0.827270508,0.3515625,0.401123047,1.35546875,1.484375,1.296875,4.9609375,-6.9765625,-4.1484375,-0.494140625,0.70703125,-0.501953125
544,5370785,5670785,-0.176696777,-0.827087402,0.348083496,0.404418945,1.5703125,0.96875,1.515625,5.09375,-6.8828125,-4.140625,-0.494140625,0.70703125,-0.501953125
545,5381260,5681260,-0.177062988,-0.826599121,0.344726562,0.40814209,1.5703125,0.96875,1.515625,5.09375,-6.8828125,-4.140625,-0.35546875,0.77734375,-0.427734375
546,5387803,5687803,-0.177246094,-0.82598877,0.341918945,0.411621094,0.83203125,0.15625,1.76953125,5.21875,-6.796875,-4.125,-0.35546875,0.77734375,-0.427734375
547,5401714,5701714,-0.177246094,-0.825317383,0.339660645,0.414855957,0.83203125,0.15625,1.76953125,5.21875,-6.796875,-4.125,-0.173828125,0.62109375,-0.375
548,5407446,5707446,-0.177001953,-0.824707031,0.33770752,0.417724609,0.29296875,0.015625,1.84375,5.3359375,-6.734375,-4.0859375,-0.173828125,0.62109375,-0.375
549,5420212,5720212,-0.176574707,-0.82421875,0.336120605,0.420043945,0.29296875,0.015625,1.84375,5.3359375,-6.734375,-4.0859375,-0.08984375,0.421875,-0.3515625
550,5428928,5728928,-0.176025391,-0.823913574,0.334655762,0.422119141,0.58984375,0.12109375,1.73046875,5.421875,-6.6875,-4.046875,-0.08984375,0.421875,-0.3515625
551,5441906,5741906,-0.175354004,-0.823730469,0.333251953,0.423828125,0.58984375,0.12109375,1.73046875,5.421875,-6.6875,-4.046875,-0.12890625,0.271484375,-0.32421875
552,5450492,5750492,-0.174865723,-0.823791504,0.331665039,0.425170898,0.51171875,0.14453125,1.69921875,5.5,-6.6328125,-4.015625,-0.12890625,0.271484375,-0.32421875
553,5459717,5759717,-0.174560547,-0.82409668,0.33001709,0.426025391,0.51171875,0.14453125,1.69921875,5.5,-6.6328125,-4.015625,-0.28125,0.140625,-0.236328125
554,5469377,5769377,-0.174621582,-0.824523926,0.328125,0.426513672,0.1875,-0.20703125,1.125,5.5546875,-6.5859375,-4.015625,-0.28125,0.140625,-0.236328125
555,5481897,5781897,-0.175170898,-0.825134277,0.326171875,0.426635742,0.1875,-0.20703125,1.125,5.5546875,-6.5859375,-4.015625,-0.4453125,0.064453125,-0.0625
556,5486684,5786684,-0.176147461,-0.825744629,0.324279785,0.426513672,-0.00390625,-0.5234375,0.7734375,5.59375,-6.5390625,-4.046875,-0.4453125,0.064453125,-0.0625
557,5499445,5799445,-0.17755127,-0.826293945,0.322509766,0.426269531,-0.00390625,-0.5234375,0.7734375,5.59375,-6.5390625,-4.046875,-0.41015625,0.05859375,0.119140625
558,5506790,5806790,-0.179077148,-0.826660156,0.321228027,0.425842285,0.265625,-1.48046875,0.59765625,5.59375,-6.5,-4.1015625,-0.41015625,0.05859375,0.119140625
559,5521221,5821221,-0.180419922,-0.826965332,0.32043457,0.425354004,0.265625,-1.48046875,0.59765625,5.59375,-6.5,-4.1015625,-0.25390625,-0.005859375,0.19140625
560,5529495,5829495,-0.181640625,-0.827209473,0.319885254,0.424743652,0.35546875,-1.40625,0.58984375,5.578125,-6.5,-4.1328125,-0.25390625,-0.005859375,0.19140625
561,5541571,5841571,-0.182800293,-0.827514648,0.319396973,0.424072266,0.35546875,-1.40625,0.58984375,5.578125,-6.5,-4.1328125,-0.212890625,-0.048828125,0.16796875
562,5548663,5848663,-0.183776855,-0.827819824,0.318908691,0.423400879,0.5703125,-0.1796875,0.93359375,5.5546875,-6.5,-4.171875,-0.212890625,-0.048828125,0.16796875
563,5560676,5860676,-0.184875488,-0.82824707,0.318237305,0.422546387,0.5703125,-0.1796875,0.93359375,5.5546875,-6.5,-4.171875,-0.26953125,-0.11328125,0.158203125
564,5566952,5866952,-0.186035156,-0.828979492,0.317443848,0.421203613,0.671875,0.921875,1.3515625,5.53125,-6.4921875,-4.203125,-0.26953125,-0.11328125,0.158203125
565,5581406,5881406,-0.1875,-0.82989502,0.316711426,0.419250488,0.671875,0.921875,1.3515625,5.53125,-6.4921875,-4.203125,-0.40625,-0.353515625,0.326171875
566,5588595,5888595,-0.189208984,-0.831054688,0.316223145,0.416564941,0.6796875,0.84765625,1.3828125,5.484375,-6.4921875,-4.2734375,-0.40625,-0.353515625,0.326171875
567,5601098,5901098,-0.191345215,-0.832519531,0.316101074,0.412841797,0.6796875,0.84765625,1.3828125,5.484375,-6.4921875,-4.2734375,-0.40625,-0.65234375,0.546875
568,5609084,5909084,-0.19329834,-0.833984375,0.31628418,0.408691406,0.3203125,0.671875,1.17578125,5.3828125,-6.5078125,-4.375,-0.40625,-0.65234375,0.546875
569,5620803,5920803,-0.195617676,-0.8359375,0.316711426,0.403320312,0.3203125,0.671875,1.17578125,5.3828125,-6.5078125,-4.375,-0.435546875,-0.974609375,0.6953125
570,5626805,5926805,-0.197998047,-0.83795166,0.317321777,0.397338867,0.31640625,0.76953125,1.0703125,5.234375,-6.53125,-4.5,-0.435546875,-0.974609375,0.6953125
571,5640913,5940913,-0.200744629,-0.83996582,0.318054199,0.391113281,0.31640625,0.76953125,1.0703125,5.234375,-6.53125,-4.5,-0.50390625,-1.09765625,0.89453125
572,5645694,5945694,-0.203735352,-0.841918945,0.318786621,0.384765625,0.98046875,0.96484375,0.8984375,5.03125,-6.5703125,-4.671875,-0.50390625,-1.09765625,0.89453125
573,5661739,5961739,-0.207580566,-0.843933105,0.319702148,0.377441406,0.98046875,0.96484375,0.8984375,5.03125,-6.5703125,-4.671875,-0.552734375,-1.10546875,1.0625
574,5668483,5968483,-0.211181641,-0.845703125,0.320373535,0.370849609,1.55859375,0.734375,0.87890625,4.796875,-6.609375,-4.84375,-0.552734375,-1.10546875,1.0625
575,5680194,5980194,-0.215270996,-0.84765625,0.321228027,0.363220215,1.55859375,0.734375,0.87890625,4.796875,-6.609375,-4.84375,-0.572265625,-1.22070312,1.18554688
576,5688093,5988093,-0.219543457,-0.84967041,0.322387695,0.354919434,1.33984375,-0.55859375,0.0234375,4.5546875,-6.65625,-5.0234375,-0.572265625,-1.22070312,1.18554688
577,5699694,5999694,-0.223754883,-0.851623535,0.323669434,0.346313477,1.33984375,-0.55859375,0.0234375,4.5546875,-6.65625,-5.0234375,-0.58203125,-1.4375,1.29101562
578,5709630,6009630,-0.227722168,-0.85357666,0.325195312,0.337280273,1.03515625,-1.30859375,-0.125,4.25,-6.7109375,-5.21875,-0.58203125,-1.4375,1.29101562
579,5719242,6019242,-0.231201172,-0.85546875,0.326904297,0.328369141,1.03515625,-1.30859375,-0.125,4.25,-6.7109375,-5.21875,-0.48046875,-1.62304688,1.28710938
580,5725212,6025212,-0.235046387,-0.857421875,0.329101562,0.31817627,0.7109375,-1.9609375,-0.55078125,3.921875,-6.75,-5.40625,-0.48046875,-1.62304688,1.28710938
581,5738295,6038295,-0.238586426,-0.85925293,0.331359863,0.308105469,0.7109375,-1.9609375,-0.55078125,3.921875,-6.75,-5.40625,-0.4453125,-1.80273438,1.33789062
582,5747927,6047927,-0.241760254,-0.861083984,0.33416748,0.297302246,0.50390625,-1.71484375,-0.0546875,3.5546875,-6.8046875,-5.59375,-0.4453125,-1.80273438,1.33789062
583,5761581,6061581,-0.244140625,-0.862731934,0.337585449,0.286621094,0.50390625,-1.71484375,-0.0546875,3.5546875,-6.8046875,-5.59375,-0.146484375,-2.11132812,1.30078125
584,5771340,6071340,-0.246337891,-0.864379883,0.341369629,0.275024414,-0.25390625,-1.3046875,-0.93359375,3.1640625,-6.8671875,-5.75,-0.146484375,-2.11132812,1.30078125
585,5781383,6081383,-0.248168945,-0.866088867,0.345153809,0.263061523,-0.25390625,-1.3046875,-0.93359375,3.1640625,-6.8671875,-5.75,-0.138671875,-2.25976562,1.2578125
586,5788808,6088808,-0.249938965,-0.867614746,0.349060059,0.250854492,-0.37109375,-1.05078125,-1.16796875,2.7421875,-6.9296875,-5.8984375,-0.138671875,-2.25976562,1.2578125
587,5799385,6099385,-0.251647949,-0.869140625,0.353515625,0.237243652,-0.37109375,-1.05078125,-1.16796875,2.7421875,-6.9296875,-5.8984375,-0.080078125,-2.40625,1.3046875
588,5806567,6106567,-0.253112793,-0.870361328,0.357727051,0.22454834,-0.31640625,-0.46875,-1.3359375,2.265625,-6.9765625,-6.0390625,-0.080078125,-2.40625,1.3046875
589,5821124,6121124,-0.254394531,-0.871398926,0.362426758,0.21105957,-0.31640625,-0.46875,-1.3359375,2.265625,-6.9765625,-6.0390625,0.04296875,-2.63867188,1.40429688
590,5826846,6126846,-0.255737305,-0.872131348,0.367370605,0.197631836,-0.03125,0.0078125,-1.35546875,1.7890625,-7.03125,-6.1328125,0.04296875,-2.63867188,1.40429688
591,5838613,6138613,-0.257385254,-0.872436523,0.37286377,0.183166504,-0.03125,0.0078125,-1.35546875,1.7890625,-7.03125,-6.1328125,0.146484375,-2.69140625,1.57421875
592,5848291,6148291,-0.259155273,-0.872375488,0.37878418,0.168212891,-0.6171875,-0.66015625,-1.140625,1.265625,-7.09375,-6.1953125,0.146484375,-2.69140625,1.57421875
593,5860428,6160428,-0.260864258,-0.871887207,0.38482666,0.153686523,-0.6171875,-0.66015625,-1.140625,1.265625,-7.09375,-6.1953125,0.3046875,-2.67773438,1.65039062
594,5866107,6166107,-0.262695312,-0.87109375,0.390625,0.140014648,-0.73828125,-0.55859375,-0.83984375,0.6953125,-7.15625,-6.2265625,0.3046875,-2.67773438,1.65039062
595,5879218,6179218,-0.264892578,-0.869812012,0.396911621,0.125183105,-0.73828125,-0.55859375,-0.83984375,0.6953125,-7.15625,-6.2265625,0.369140625,-2.57226562,1.7421875
596,5884951,6184951,-0.267150879,-0.868225098,0.403076172,0.110900879,-1.5078125,-0.45703125,-0.90234375,0.125,-7.21875,-6.203125,0.369140625,-2.57226562,1.7421875
597,5898846,6198846,-0.26940918,-0.866394043,0.409179688,0.0966186523,-1.5078125,-0.45703125,-0.90234375,0.125,-7.21875,-6.203125,0.416015625,-2.5703125,1.7734375
598,5903886,6203886,-0.271484375,-0.864318848,0.415222168,0.0826416016,-1.50390625,-0.1015625,-0.62890625,-0.453125,-7.265625,-6.1328125,0.416015625,-2.5703125,1.7734375
599,5918035,6218035,-0.27331543,-0.862121582,0.420959473,0.0697021484,-1.50390625,-0.1015625,-0.62890625,-0.453125,-7.265625,-6.1328125,0.46875,-2.46484375,1.67578125
600,5926785,6226785,-0.275146484,-0.85949707,0.427185059,0.055847168,-1.234375,-0.2265625,-0.4921875,-0.9921875,-7.296875,-6.0390625,0.46875,-2.46484375,1.67578125
601,5938520,6238520,-0.276672363,-0.856750488,0.433044434,0.0432128906,-1.234375,-0.2265625,-0.4921875,-0.9921875,-7.296875,-6.0390625,0.548828125,-2.30859375,1.53320312
602,5943796,6243796,-0.277893066,-0.854003906,0.438720703,0.03125,-1.0859375,0.171875,-0.31640625,-1.5234375,-7.3125,-5.90625,0.548828125,-2.30859375,1.53320312
603,5957754,6257754,-0.278930664,-0.851196289,0.444213867,0.0195922852,-1.0859375,0.171875,-0.31640625,-1.5234375,-7.3125,-5.90625,0.515625,-2.1015625,1.33203125
604,5963465,6263465,-0.279846191,-0.848388672,0.44934082,0.00872802734,-0.81640625,0.609375,0.1015625,-1.984375,-7.328125,-5.75,0.515625,-2.1015625,1.33203125
605,5977797,6277797,0.280517578,0.84564209,-0.454162598,0.00134277344,-0.81640625,0.609375,0.1015625,-1.984375,-7.328125,-5.75,0.490234375,-1.88085938,1.14648438
606,5983793,6283793,0.280883789,0.843078613,-0.458496094,0.0104370117,-0.66796875,0.7421875,0.171875,-2.3984375,-7.34375,-5.59375,0.490234375,-1.88085938,1.14648438
607,5996722,6296722,0.281066895,0.840576172,-0.462768555,0.0191650391,-0.66796875,0.7421875,0.171875,-2.3984375,-7.34375,-5.59375,0.431640625,-1.61523438,0.896484375
608,6005805,6305805,0.281066895,0.838134766,-0.466674805,0.0272216797,-0.33203125,1.0859375,0.62109375,-2.734375,-7.34375,-5.4296875,0.431640625,-1.61523438,0.896484375
609,6018287,6318287,0.281188965,0.835876465,-0.470214844,0.0344848633,-0.33203125,1.0859375,0.62109375,-2.734375,-7.34375,-5.4296875,0.388671875,-1.36523438,0.7890625
610,6026297,6326297,0.281188965,0.833557129,-0.473632812,0.0412597656,-0.0078125,0.578125,0.328125,-3.0234375,-7.3359375,-5.2890625,0.388671875,-1.36523438,0.7890625
611,6036294,6336294,0.28112793,0.831481934,-0.476806641,0.0473022461,-0.0078125,0.578125,0.328125,-3.0234375,-7.3359375,-5.2890625,0.388671875,-1.19335938,0.625
612,6044095,6344095,0.280944824,0.829467773,-0.479797363,0.0529174805,0.07421875,1.15625,0.265625,-3.2578125,-7.3359375,-5.1484375,0.388671875,-1.19335938,0.625
613,6061711,6361711,0.280822754,0.827636719,-0.482421875,0.0582275391,0.07421875,1.15625,0.265625,-3.2578125,-7.3359375,-5.1484375,0.28515625,-1.01757812,0.541015625
614,6065255,6365255,0.280639648,0.82598877,-0.484802246,0.063293457,0.046875,1.33984375,0.1484375,-3.4609375,-7.328125,-5.03125,0.28515625,-1.01757812,0.541015625
615,6079626,6379626,0.280456543,0.824523926,-0.486755371,0.0678100586,0.046875,1.33984375,0.1484375,-3.4609375,-7.328125,-5.03125,0.189453125,-0.896484375,0.47265625
616,6088618,6388618,0.280395508,0.823242188,-0.48840332,0.0719604492,-0.171875,1.28515625,0.15234375,-3.625,-7.3125,-4.921875,0.189453125,-0.896484375,0.47265625
617,6100260,6400260,0.280395508,0.821960449,-0.489868164,0.0760498047,-0.171875,1.28515625,0.15234375,-3.625,-7.3125,-4.921875,0.1328125,-0.716796875,0.443359375
618,6103699,6403699,0.280578613,0.820800781,-0.491149902,0.0797119141,-0.2578125,1.19140625,0.2265625,-3.765625,-7.296875,-4.84375,0.1328125,-0.716796875,0.443359375
619,6120102,6420102,0.280761719,0.819641113,-0.49230957,0.0833740234,-0.2578125,1.19140625,0.2265625,-3.765625,-7.296875,-4.84375,0.076171875,-0.61328125,0.416015625
620,6123839,6423839,0.281005859,0.818725586,-0.493164062,0.0864868164,-0.3125,1.12890625,0.2421875,-3.90625,-7.2734375,-4.78125,0.076171875,-0.61328125,0.416015625
621,6140791,6440791,0.28137207,0.817749023,-0.494018555,0.0897216797,-0.3125,1.12890625,0.2421875,-3.90625,-7.2734375,-4.78125,0.044921875,-0.513671875,0.388671875
622,6145662,6445662,0.281616211,0.817016602,-0.494628906,0.0924682617,-0.4296875,0.90625,0.1484375,-4.015625,-7.2421875,-4.7265625,0.044921875,-0.513671875,0.388671875
623,6157934,6457934,0.281799316,0.816345215,-0.495117188,0.0950317383,-0.4296875,0.90625,0.1484375,-4.015625,-7.2421875,-4.7265625,-0.005859375,-0.412109375,0.26953125
624,6165970,6465970,0.281799316,0.815917969,-0.495422363,0.0972290039,-0.84375,0.921875,0.1484375,-4.1015625,-7.21875,-4.6875,-0.005859375,-0.412109375,0.26953125
625,6180646,6480646,0.281555176,0.815673828,-0.495605469,0.0991821289,-0.84375,0.921875,0.1484375,-4.1015625,-7.21875,-4.6875,-0.083984375,-0.353515625,0.14453125
626,6185589,6485589,0.281188965,0.815551758,-0.495605469,0.100952148,-0.88671875,0.74609375,0.203125,-4.171875,-7.1953125,-4.6640625,-0.083984375,-0.353515625,0.14453125
627,6196349,6496349,0.280822754,0.815429688,-0.495666504,0.102722168,-0.88671875,0.74609375,0.203125,-4.171875,-7.1953125,-4.6640625,-0.09765625,-0.302734375,0.1171875
628,6202875,6502875,0.280578613,0.815368652,-0.495544434,0.104248047,-0.79296875,0.68359375,0.26171875,-4.2265625,-7.171875,-4.6484375,-0.09765625,-0.302734375,0.1171875
629,6218553,6518553,0.280395508,0.815368652,-0.495361328,0.10559082,-0.79296875,0.68359375,0.26171875,-4.2265625,-7.171875,-4.6484375,-0.11328125,-0.216796875,0.119140625
630,6222014,6522014,0.280273438,0.815368652,-0.495117188,0.106811523,-0.6015625,0.78515625,0.21484375,-4.265625,-7.15625,-4.640625,-0.11328125,-0.216796875,0.119140625
631,6238047,6538047,0.280212402,0.815490723,-0.494812012,0.107727051,-0.6015625,0.78515625,0.21484375,-4.265625,-7.15625,-4.640625,-0.119140625,-0.1015625,0.068359375
632,6247210,6547210,0.280151367,0.815734863,-0.494384766,0.108276367,-0.34765625,0.64453125,0.140625,-4.2890625,-7.1328125,-4.640625,-0.119140625,-0.1015625,0.068359375
633,6260322,6560322,0.279968262,0.816162109,-0.493774414,0.108398438,-0.34765625,0.64453125,0.140625,-4.2890625,-7.1328125,-4.640625,-0.15234375,0.037109375,-0.0546875
634,6263739,6563739,0.279663086,0.816711426,-0.493041992,0.108093262,-0.140625,0.4375,0.15625,-4.3046875,-7.1171875,-4.65625,-0.15234375,0.037109375,-0.0546875
635,6277393,6577393,0.27923584,0.817382812,-0.49230957,0.107421875,-0.140625,0.4375,0.15625,-4.3046875,-7.1171875,-4.65625,-0.17578125,0.158203125,-0.203125
636,6282179,6582179,0.278625488,0.81829834,-0.491394043,0.106323242,-0.09765625,0.390625,0.234375,-4.2734375,-7.109375,-4.6953125,-0.17578125,0.158203125,-0.203125
637,6298886,6598886,0.277832031,0.819396973,-0.490356445,0.104736328,-0.09765625,0.390625,0.234375,-4.2734375,-7.109375,-4.6953125,-0.234375,0.31640625,-0.35546875
638,6302205,6602205,0.277099609,0.820678711,-0.489013672,0.102661133,-0.12109375,0.46875,0.30859375,-4.2109375,-7.109375,-4.734375,-0.234375,0.31640625,-0.35546875
639,6316180,6616180,0.276367188,0.822265625,-0.487365723,0.0997314453,-0.12109375,0.46875,0.30859375,-4.2109375,-7.109375,-4.734375,-0.26953125,0.578125,-0.4453125
640,6328385,6628385,0.275939941,0.823913574,-0.485534668,0.0961914062,0.015625,0.3984375,0.37890625,-4.1171875,-7.1171875,-4.8046875,-0.26953125,0.578125,-0.4453125
641,6339524,6639524,0.275878906,0.825622559,-0.483520508,0.0919189453,0.015625,0.3984375,0.37890625,-4.1171875,-7.1171875,-4.8046875,-0.28125,1.02148438,-0.546875
642,6344081,6644081,0.276123047,0.827636719,-0.481018066,0.0859985352,0.52734375,0.33203125,0.7109375,-3.9765625,-7.125,-4.90625,-0.28125,1.02148438,-0.546875
643,6355941,6655941,0.276733398,0.82989502,-0.478088379,0.0786132812,0.52734375,0.33203125,0.7109375,-3.9765625,-7.125,-4.90625,-0.26171875,1.55078125,-0.705078125
644,6364135,6664135,0.27746582,0.83215332,-0.474975586,0.0702514648,0.26953125,0.27734375,0.8203125,-3.7578125,-7.1484375,-5.0546875,-0.26171875,1.55078125,-0.705078125
645,6378373,6678373,0.278137207,0.834594727,-0.471618652,0.0606689453,0.26953125,0.27734375,0.8203125,-3.7578125,-7.1484375,-5.0546875,-0.23828125,1.9375,-0.931640625
646,6386282,6686282,0.278564453,0.836975098,-0.468322754,0.0509643555,-0.640625,0.30859375,0.640625,-3.4609375,-7.1796875,-5.21875,-0.23828125,1.9375,-0.931640625
647,6398050,6698050,0.278442383,0.83984375,-0.464355469,0.0394287109,-0.640625,0.30859375,0.640625,-3.4609375,-7.1796875,-5.21875,-0.287109375,2.10742188,-1.25195312
648,6407406,6707406,0.277709961,0.842590332,-0.460571289,0.028503418,-1.32421875,0.5,0.4921875,-3.0859375,-7.21875,-5.375,-0.287109375,2.10742188,-1.25195312
649,6420640,6720640,0.276550293,0.84564209,-0.456176758,0.016784668,-1.32421875,0.5,0.4921875,-3.0859375,-7.21875,-5.375,-0.3984375,2.12695312,-1.43945312
650,6425323,6725323,0.275268555,0.848754883,-0.451477051,0.00445556641,-1.0390625,-0.07421875,0.125,-2.6796875,-7.2578125,-5.546875,-0.3984375,2.12695312,-1.43945312
651,6437341,6737341,-0.274291992,-0.851257324,0.44732666,0.00708007812,-1.0390625,-0.07421875,0.125,-2.6796875,-7.2578125,-5.546875,-0.267578125,2.26367188,-1.41015625
652,6441079,6741079,-0.273498535,-0.853515625,0.443115234,0.0197143555,-0.87890625,-0.234375,-0.1015625,-2.2265625,-7.2890625,-5.703125,-0.267578125,2.26367188,-1.41015625
653,6459230,6759230,-0.272705078,-0.855651855,0.438598633,0.0336914062,-0.87890625,-0.234375,-0.1015625,-2.2265625,-7.2890625,-5.703125,-0.173828125,2.49804688,-1.46679688
654,6462660,6762660,-0.271972656,-0.857543945,0.434020996,0.0475463867,-1.1328125,-0.01953125,-0.01171875,-1.7421875,-7.3125,-5.828125,-0.173828125,2.49804688,-1.46679688
655,6478289,6778289,-0.271118164,-0.859313965,0.429199219,0.0620117188,-1.1328125,-0.01953125,-0.01171875,-1.7421875,-7.3125,-5.828125,-0.1640625,2.6875,-1.57226562
656,6486380,6786380,-0.270019531,-0.860778809,0.424682617,0.0764160156,-1.55078125,-0.53125,-0.1015625,-1.2109375,-7.3359375,-5.9296875,-0.1640625,2.6875,-1.57226562
657,6497622,6797622,-0.268432617,-0.861999512,0.42010498,0.0919799805,-1.55078125,-0.53125,-0.1015625,-1.2109375,-7.3359375,-5.9296875,0.005859375,2.80664062,-1.796875
658,6501988,6801988,-0.266357422,-0.862976074,0.415649414,0.107788086,-1.60546875,-0.70703125,-0.23046875,-0.65625,-7.3515625,-5.9921875,0.005859375,2.80664062,-1.796875
659,6517261,6817261,-0.263977051,-0.863647461,0.411499023,0.122924805,-1.60546875,-0.70703125,-0.23046875,-0.65625,-7.3515625,-5.9921875,0.12109375,2.5703125,-1.77148438
660,6520996,6820996,-0.261535645,-0.864013672,0.407714844,0.137451172,-1.50390625,-0.25390625,-0.64453125,-0.0703125,-7.3828125,-6,0.12109375,2.5703125,-1.77148438
661,6538391,6838391,-0.259094238,-0.864196777,0.403930664,0.151245117,-1.50390625,-0.25390625,-0.64453125,-0.0703125,-7.3828125,-6,0.099609375,2.22851562,-1.54882812
662,6541826,6841826,-0.257019043,-0.864196777,0.400512695,0.163330078,-0.05078125,1.1328125,-1.12890625,0.46875,-7.390625,-5.9765625,0.099609375,2.22851562,-1.54882812
663,6556777,6856777,-0.255310059,-0.864074707,0.39666748,0.175598145,-0.05078125,1.1328125,-1.12890625,0.46875,-7.390625,-5.9765625,-0.0078125,2.09375,-1.28125
664,6565406,6865406,-0.254272461,-0.863769531,0.393066406,0.186462402,0.63671875,1.15625,-0.70703125,0.9296875,-7.375,-5.9375,-0.0078125,2.09375,-1.28125
665,6578341,6878341,-0.253601074,-0.862976074,0.389343262,0.198486328,0.63671875,1.15625,-0.70703125,0.9296875,-7.375,-5.9375,0.095703125,2.203125,-1.09570312
666,6582149,6882149,-0.252929688,-0.861755371,0.386291504,0.210144043,0.26171875,-0.5546875,-1.22265625,1.34375,-7.3515625,-5.8828125,0.095703125,2.203125,-1.09570312
667,6594772,6894772,-0.251953125,-0.859863281,0.384521484,0.221984863,0.26171875,-0.5546875,-1.22265625,1.34375,-7.3515625,-5.8828125,0.65234375,2.02734375,-1.02929688
668,6600731,6900731,-0.250305176,-0.85760498,0.384155273,0.232910156,-0.796875,-1.3203125,-1.29296875,1.75,-7.3515625,-5.7734375,0.65234375,2.02734375,-1.02929688
669,6618258,6918258,-0.247680664,-0.855407715,0.384277344,0.243469238,-0.796875,-1.3203125,-1.29296875,1.75,-7.3515625,-5.7734375,0.841796875,1.6171875,-1.23632812
670,6623108,6923108,-0.24395752,-0.853515625,0.384216309,0.253723145,0.0625,0.22265625,0.47265625,2.1171875,-7.3984375,-5.5859375,0.841796875,1.6171875,-1.23632812
671,6634416,6934416,-0.239868164,-0.852233887,0.383422852,0.263061523,0.0625,0.22265625,0.47265625,2.1171875,-7.3984375,-5.5859375,0.44921875,1.3125,-1.39648438
672,6643604,6943604,-0.23638916,-0.85168457,0.381408691,0.270690918,1.3984375,2.23046875,0.796875,2.46875,-7.4140625,-5.4140625,0.44921875,1.3125,-1.39648438
673,6657720,6957720,-0.233337402,-0.85168457,0.378295898,0.277709961,1.3984375,2.23046875,0.796875,2.46875,-7.4140625,-5.4140625,-0.125,1.00976562,-1.06640625
674,6661165,6961165,-0.231201172,-0.85144043,0.375549316,0.283813477,1.8984375,1.75390625,-0.61328125,2.7734375,-7.359375,-5.34375,-0.125,1.00976562,-1.06640625
675,6675639,6975639,-0.229248047,-0.850524902,0.373779297,0.290527344,1.8984375,1.75390625,-0.61328125,2.7734375,-7.359375,-5.34375,0.3359375,1.16601562,-0.87109375
676,6679363,6979363,-0.227294922,-0.848999023,0.37286377,0.297485352,1.4921875,-0.09375,-1.71875,3.0234375,-7.3125,-5.2734375,0.3359375,1.16601562,-0.87109375
677,6696609,6996609,-0.225280762,-0.846862793,0.372009277,0.305969238,1.4921875,-0.09375,-1.71875,3.0234375,-7.3125,-5.2734375,0.509765625,1.53515625,-0.951171875
678,6700233,7000233,-0.223510742,-0.844665527,0.370727539,0.314819336,1.7265625,0.2421875,0.1171875,3.2890625,-7.3046875,-5.1171875,0.509765625,1.53515625,-0.951171875
679,6715895,7015895,-0.221740723,-0.842285156,0.368347168,0.325073242,1.7265625,0.2421875,0.1171875,3.2890625,-7.3046875,-5.1171875,0.224609375,1.86132812,-1.09960938
680,6724666,7024666,-0.220092773,-0.840454102,0.364929199,0.334655762,1.328125,0.5546875,1.2890625,3.609375,-7.2734375,-4.9453125,0.224609375,1.86132812,-1.09960938
681,6737951,7037951,-0.217651367,-0.839172363,0.360046387,0.344604492,1.328125,0.5546875,1.2890625,3.609375,-7.2734375,-4.9453125,-0.19921875,1.54882812,-1.40039062
682,6741445,7041445,-0.21484375,-0.838928223,0.354919434,0.352233887,0.44140625,1.10546875,1.4609375,3.9609375,-7.171875,-4.8125,-0.19921875,1.54882812,-1.40039062
683,6755362,7055362,-0.212036133,-0.839599609,0.349365234,0.357849121,0.44140625,1.10546875,1.4609375,3.9609375,-7.171875,-4.8125,-0.662109375,0.791015625,-1.27929688
684,6759818,7059818,-0.209655762,-0.840942383,0.343566895,0.361694336,-0.09375,1.984375,0.77734375,4.265625,-7.015625,-4.78125,-0.662109375,0.791015625,-1.27929688
685,6776503,7076503,-0.208007812,-0.842895508,0.337158203,0.364074707,-0.09375,1.984375,0.77734375,4.265625,-7.015625,-4.78125,-1.03710938,0.3046875,-0.828125
686,6780034,7080034,-0.207336426,-0.844482422,0.331665039,0.365844727,1.20703125,-0.02734375,0.12890625,4.4609375,-6.84375,-4.859375,-1.03710938,0.3046875,-0.828125
687,6794145,7094145,-0.20715332,-0.844970703,0.327270508,0.368835449,1.20703125,-0.02734375,0.12890625,4.4609375,-6.84375,-4.859375,-0.39453125,0.796875,-0.5
688,6802555,7102555,-0.206970215,-0.844055176,0.32421875,0.373657227,1.02734375,-2.03515625,-0.12109375,4.6015625,-6.7109375,-4.9140625,-0.39453125,0.796875,-0.5
689,6816730,7116730,-0.206604004,-0.842285156,0.321838379,0.379821777,1.02734375,-2.03515625,-0.12109375,4.6015625,-6.7109375,-4.9140625,0.083984375,1.36523438,-0.611328125
690,6820157,7120157,-0.205749512,-0.840332031,0.319946289,0.386169434,1.11328125,-2.3359375,1.015625,4.78125,-6.640625,-4.828125,0.083984375,1.36523438,-0.611328125
691,6834064,7134064,-0.204223633,-0.838745117,0.317993164,0.391967773,1.11328125,-2.3359375,1.015625,4.78125,-6.640625,-4.828125,0.04296875,0.88671875,-0.73828125
692,6839102,7139102,-0.202514648,-0.838378906,0.315185547,0.395996094,-0.16015625,0.60546875,1.3828125,4.984375,-6.59375,-4.6953125,0.04296875,0.88671875,-0.73828125
693,6855027,7155027,-0.201171875,-0.838928223,0.311523438,0.39831543,-0.16015625,0.60546875,1.3828125,4.984375,-6.59375,-4.6953125,-0.56640625,0.314453125,-0.662109375
694,6858727,7158727,-0.200256348,-0.83984375,0.307739258,0.399841309,0.37890625,0.83984375,0.640625,5.1328125,-6.484375,-4.6796875,-0.56640625,0.314453125,-0.662109375
695,6873600,7173600,-0.199829102,-0.840515137,0.304077148,0.401367188,0.37890625,0.83984375,0.640625,5.1328125,-6.484375,-4.6796875,-0.490234375,0.361328125,-0.431640625
696,6882755,7182755,-0.199462891,-0.840698242,0.301269531,0.403320312,0.859375,-1.03125,0.37109375,5.2265625,-6.375,-4.71875,-0.490234375,0.361328125,-0.431640625
697,6894200,7194200,-0.198913574,-0.840393066,0.299499512,0.405578613,0.859375,-1.03125,0.37109375,5.2265625,-6.375,-4.71875,-0.01953125,0.447265625,-0.361328125
698,6899098,7199098,-0.197937012,-0.83984375,0.29864502,0.407775879,0.421875,-1.4765625,0.73828125,5.3203125,-6.3125,-4.703125,-0.01953125,0.447265625,-0.361328125
699,6913198,7213198,-0.196594238,-0.839294434,0.298217773,0.409790039,0.421875,-1.4765625,0.73828125,5.3203125,-6.3125,-4.703125,0.18359375,0.27734375,-0.35546875
700,6918227,7218227,-0.195068359,-0.838928223,0.297973633,0.411499023,0.4609375,-0.3984375,0.8828125,5.3984375,-6.28125,-4.65625,0.18359375,0.27734375,-0.35546875
701,6933916,7233916,-0.193786621,-0.838745117,0.297607422,0.412780762,0.4609375,-0.3984375,0.8828125,5.3984375,-6.28125,-4.65625,0.072265625,0.140625,-0.3125
702,6938818,7238818,-0.192749023,-0.838684082,0.297058105,0.413757324,0.703125,-0.078125,0.72265625,5.4609375,-6.2578125,-4.609375,0.072265625,0.140625,-0.3125
703,6951907,7251907,-0.192016602,-0.838684082,0.296508789,0.414550781,0.703125,-0.078125,0.72265625,5.4609375,-6.2578125,-4.609375,-0.009765625,0.111328125,-0.173828125
704,6965427,7265427,-0.191589355,-0.838623047,0.296020508,0.415100098,0.46484375,-0.1015625,0.78125,5.5078125,-6.234375,-4.59375,-0.009765625,0.111328125,-0.173828125
705,6977710,7277710,-0.19140625,-0.838623047,0.295776367,0.415405273,0.46484375,-0.1015625,0.78125,5.5078125,-6.234375,-4.59375,-0.013671875,0.03515625,-0.037109375
706,6982382,7282382,-0.191467285,-0.838623047,0.295654297,0.415527344,0.2578125,-0.19140625,0.73828125,5.5234375,-6.21875,-4.5859375,-0.013671875,0.03515625,-0.037109375
707,6992406,7292406,-0.191772461,-0.838562012,0.295715332,0.415405273,0.2578125,-0.19140625,0.73828125,5.5234375,-6.21875,-4.5859375,-0.0078125,0.005859375,0.1015625
708,7000109,7300109,-0.192321777,-0.838439941,0.296020508,0.415222168,0.2890625,-0.26171875,0.84375,5.53125,-6.2265625,-4.578125,-0.0078125,0.005859375,0.1015625
709,7014234,7314234,-0.192993164,-0.838256836,0.296508789,0.414855957,0.2890625,-0.26171875,0.84375,5.53125,-6.2265625,-4.578125,0.03515625,-0.0390625,0.203125
710,7017823,7317823,-0.193786621,-0.838195801,0.297180176,0.414245605,0.234375,-0.28515625,1.07421875,5.5078125,-6.2421875,-4.578125,0.03515625,-0.0390625,0.203125
711,7034732,7334732,-0.194763184,-0.838195801,0.297851562,0.413269043,0.234375,-0.28515625,1.07421875,5.5078125,-6.2421875,-4.578125,-0.033203125,-0.162109375,0.29296875
712,7044401,7344401,-0.195922852,-0.838378906,0.298339844,0.411987305,0.2734375,0.015625,1.2734375,5.46875,-6.2734375,-4.5859375,-0.033203125,-0.162109375,0.29296875
713,7057234,7357234,-0.197387695,-0.838684082,0.29876709,0.410339355,0.2734375,0.015625,1.2734375,5.46875,-6.2734375,-4.5859375,-0.177734375,-0.240234375,0.384765625
714,7061762,7361762,-0.19921875,-0.839172363,0.29901123,0.40826416,0.4453125,0.3828125,1.609375,5.4140625,-6.296875,-4.6171875,-0.177734375,-0.240234375,0.384765625
715,7075550,7375550,-0.201416016,-0.83984375,0.299255371,0.405639648,0.4453125,0.3828125,1.609375,5.4140625,-6.296875,-4.6171875,-0.3125,-0.4453125,0.55859375
716,7079278,7379278,-0.203796387,-0.840820312,0.299621582,0.402160645,0.4609375,0.18359375,1.4140625,5.3203125,-6.328125,-4.6875,-0.3125,-0.4453125,0.55859375
717,7093589,7393589,-0.206420898,-0.84185791,0.300415039,0.398010254,0.4609375,0.18359375,1.4140625,5.3203125,-6.328125,-4.6875,-0.275390625,-0.72265625,0.755859375
718,7097173,7397173,-0.20892334,-0.842895508,0.301757812,0.393432617,0.5546875,-0.00390625,1.31640625,5.1875,-6.3671875,-4.78125,-0.275390625,-0.72265625,0.755859375
719,7111809,7411809,-0.211730957,-0.844177246,0.303771973,0.387634277,0.5546875,-0.00390625,1.31640625,5.1875,-6.3671875,-4.78125,-0.16796875,-1.03125,0.935546875
720,7120406,7420406,-0.214477539,-0.845458984,0.306152344,0.381469727,0.75,-0.44140625,1.0859375,4.9921875,-6.4296875,-4.8984375,-0.16796875,-1.03125,0.935546875
721,7132167,7432167,-0.217346191,-0.846679688,0.308837891,0.37487793,0.75,-0.44140625,1.0859375,4.9921875,-6.4296875,-4.8984375,-0.115234375,-1.16015625,1.0625
722,7138002,7438002,-0.220336914,-0.847839355,0.311706543,0.368041992,0.9453125,-0.46875,0.828125,4.7578125,-6.515625,-5.0234375,-0.115234375,-1.16015625,1.0625
723,7154560,7454560,-0.223266602,-0.849121094,0.314819336,0.360656738,0.9453125,-0.46875,0.828125,4.7578125,-6.515625,-5.0234375,-0.091796875,-1.35546875,1.14453125
724,7158168,7458168,-0.226074219,-0.850402832,0.317871094,0.353149414,0.79296875,-0.8359375,0.140625,4.4921875,-6.609375,-5.140625,-0.091796875,-1.35546875,1.14453125
725,7171483,7471483,-0.229431152,-0.85168457,0.321228027,0.344726562,0.79296875,-0.8359375,0.140625,4.4921875,-6.609375,-5.140625,-0.130859375,-1.3828125,1.25195312
726,7177060,7477060,-0.232727051,-0.852783203,0.324401855,0.336669922,1.05859375,-0.93359375,0.015625,4.1875,-6.703125,-5.28125,-0.130859375,-1.3828125,1.25195312
727,7193286,7493286,-0.236083984,-0.853942871,0.327819824,0.327941895,1.05859375,-0.93359375,0.015625,4.1875,-6.703125,-5.28125,-0.12109375,-1.63671875,1.36328125
728,7201479,7501479,-0.239196777,-0.855285645,0.331665039,0.318237305,0.83984375,-1.30078125,0.29296875,3.8671875,-6.796875,-5.40625,-0.12109375,-1.63671875,1.36328125
729,7211977,7511977,-0.2421875,-0.856750488,0.335754395,0.307495117,0.83984375,-1.30078125,0.29296875,3.8671875,-6.796875,-5.40625,-0.1171875,-1.92382812,1.35351562
730,7217558,7517558,-0.244689941,-0.858215332,0.33972168,0.296936035,0.7265625,-1.12890625,0.35546875,3.484375,-6.890625,-5.546875,-0.1171875,-1.92382812,1.35351562
