sample_index,offset_us,timestamp_us,quat_i,quat_j,quat_k,quat_real,linear_accel_x_mps2,linear_accel_y_mps2,linear_accel_z_mps2,gravity_x_mps2,gravity_y_mps2,gravity_z_mps2,gyro_x_radps,gyro_y_radps,gyro_z_radps
0,31216,331216,0.687927246,0.133300781,-0.617858887,0.356689453,1.5859375,-1.67578125,-2.48046875,-9.328125,3.2421875,0.34375,0.5,-0.740234375,0.77734375
1,31264,331264,0.686828613,0.127563477,-0.619506836,0.358093262,1.6015625,-3.1171875,-4.35546875,-9.3046875,3.2265625,0.2265625,0.5,-0.740234375,0.77734375
2,31296,331296,0.685119629,0.120910645,-0.621582031,0.360107422,1.6015625,-3.1171875,-4.35546875,-9.3046875,3.2265625,0.2265625,0.458984375,-1.12695312,1.02539062
3,31344,331344,0.682617188,0.113525391,-0.624145508,0.362731934,1.40625,-2.859375,-4.09375,-9.2265625,3.390625,0.3515625,0.458984375,-1.12695312,1.02539062
4,31376,331376,0.67956543,0.105651855,-0.626953125,0.365966797,1.40625,-2.859375,-4.09375,-9.2265625,3.390625,0.3515625,0.38671875,-1.515625,1.27734375
5,31424,331424,0.676025391,0.0971069336,-0.630065918,0.369567871,1.390625,-2.52734375,-3.6171875,-9.1328125,3.59375,0.5625,0.38671875,-1.515625,1.27734375
6,31456,331456,0.671875,0.0875244141,-0.633483887,0.373596191,1.390625,-2.52734375,-3.6171875,-9.1328125,3.59375,0.5625,0.431640625,-1.8359375,1.5234375
7,33687,333687,0.582763672,-0.078918457,-0.679443359,0.438720703,1.390625,-2.52734375,-3.6171875,-9,3.8359375,0.8203125,0.431640625,-1.8359375,1.5234375
8,51127,351127,0.57434082,-0.0935668945,-0.681640625,0.443481445,1.390625,-2.52734375,-3.6171875,-9,3.8359375,0.8203125,0.67578125,-2.5703125,2.27539062
9,51175,351175,0.566101074,-0.107666016,-0.683532715,0.447998047,2.6015625,0.21484375,-0.32421875,-6.859375,6.1796875,3.09375,0.67578125,-2.5703125,2.27539062
10,61512,361512,0.557189941,-0.121826172,-0.685424805,0.452697754,2.6015625,0.21484375,-0.32421875,-6.859375,6.1796875,3.09375,0.486328125,-2.54882812,2.19726562
11,66979,366979,0.547607422,-0.135253906,-0.68737793,0.457580566,2.265625,0.8046875,0.4140625,-6.40625,6.5078125,3.3515625,0.486328125,-2.54882812,2.19726562
12,80792,380792,0.537597656,-0.147277832,-0.68939209,0.46270752,2.265625,0.8046875,0.4140625,-6.40625,6.5078125,3.3515625,0.017578125,-2.64453125,2.1640625
13,86747,386747,0.526367188,-0.159790039,-0.691467285,0.468322754,2.25,1.87109375,2.7421875,-5.9296875,6.78125,3.625,0.017578125,-2.64453125,2.1640625
14,101096,401096,0.515380859,-0.172058105,-0.69317627,0.473632812,2.25,1.87109375,2.7421875,-5.9296875,6.78125,3.625,0.095703125,-2.7265625,2.28320312
15,107140,407140,0.504455566,-0.185058594,-0.694335938,0.47869873,2.1171875,0.05859375,1,-5.4140625,7.0234375,3.9140625,0.095703125,-2.7265625,2.28320312
16,120384,420384,0.49420166,-0.198730469,-0.694824219,0.483215332,2.1171875,0.05859375,1,-5.4140625,7.0234375,3.9140625,0.560546875,-2.57421875,2.34960938
17,128989,428989,0.485168457,-0.212097168,-0.694702148,0.486877441,2.79296875,-0.6953125,-0.94140625,-4.8671875,7.28125,4.1328125,0.560546875,-2.57421875,2.34960938
18,141732,441732,0.476074219,-0.226379395,-0.694030762,0.490356445,2.79296875,-0.6953125,-0.94140625,-4.8671875,7.28125,4.1328125,0.775390625,-2.31054688,2.20898438
19,146976,446976,0.466918945,-0.239746094,-0.693359375,0.493774414,2.36328125,-0.07421875,-0.2109375,-4.3203125,7.5390625,4.2421875,0.775390625,-2.31054688,2.20898438
20,160808,460808,0.45690918,-0.251220703,-0.69317627,0.497619629,2.36328125,-0.07421875,-0.2109375,-4.3203125,7.5390625,4.2421875,0.015625,-2.42382812,2.1328125
21,166757,466757,0.444885254,-0.261779785,-0.693664551,0.502380371,1.87109375,2.0234375,1.7890625,-3.7890625,7.7421875,4.3515625,0.015625,-2.42382812,2.1328125
22,182146,482146,0.431640625,-0.27166748,-0.694396973,0.507568359,1.87109375,2.0234375,1.7890625,-3.7890625,7.7421875,4.3515625,-0.5234375,-2.67773438,2.26367188
23,188920,488920,0.41784668,-0.282165527,-0.694885254,0.512756348,1.66796875,0.71875,1.60546875,-3.203125,7.859375,4.5703125,-0.5234375,-2.67773438,2.26367188
24,200774,500774,0.405395508,-0.29284668,-0.694702148,0.517028809,1.66796875,0.71875,1.60546875,-3.203125,7.859375,4.5703125,0.00390625,-2.63085938,2.27148438
25,209388,509388,0.393981934,-0.304260254,-0.693786621,0.520507812,2.28515625,0.35546875,0.76171875,-2.59375,7.953125,4.765625,0.00390625,-2.63085938,2.27148438
26,222128,522128,0.383422852,-0.316589355,-0.692016602,0.52331543,2.28515625,0.35546875,0.76171875,-2.59375,7.953125,4.765625,0.623046875,-2.33789062,2.13867188
27,229269,529269,0.373718262,-0.329284668,-0.68963623,0.525695801,2.6953125,1.1015625,0.59765625,-2.0078125,8.0859375,4.8125,0.623046875,-2.33789062,2.13867188
28,240497,540497,0.36505127,-0.341003418,-0.687011719,0.527709961,2.6953125,1.1015625,0.59765625,-2.0078125,8.0859375,4.8125,0.724609375,-2.1015625,1.99023438
29,248869,548869,0.356384277,-0.352416992,-0.684387207,0.529541016,2.3671875,2.51171875,1.94140625,-1.453125,8.2109375,4.7734375,0.724609375,-2.1015625,1.99023438
30,261439,561439,0.347595215,-0.363342285,-0.68182373,0.53125,2.3671875,2.51171875,1.94140625,-1.453125,8.2109375,4.7734375,0.578125,-2.03515625,1.88476562
31,266685,566685,0.338928223,-0.373718262,-0.679321289,0.532897949,2.11328125,2.4765625,2.625,-0.9296875,8.3203125,4.703125,0.578125,-2.03515625,1.88476562
32,280928,580928,0.330078125,-0.383728027,-0.676818848,0.534545898,2.11328125,2.4765625,2.625,-0.9296875,8.3203125,4.703125,0.453125,-1.92773438,1.80859375
33,289525,589525,0.321838379,-0.392822266,-0.674316406,0.536132812,1.66015625,2.29296875,2.87109375,-0.4375,8.390625,4.6484375,0.453125,-1.92773438,1.80859375
34,301430,601430,0.313232422,-0.402526855,-0.671325684,0.537780762,1.66015625,2.29296875,2.87109375,-0.4375,8.390625,4.6484375,0.544921875,-1.78710938,1.80078125
35,306678,606678,0.305419922,-0.41229248,-0.667785645,0.539245605,1.91015625,0.7890625,0.80078125,0.0390625,8.4375,4.5703125,0.544921875,-1.78710938,1.80078125
36,320538,620538,0.299072266,-0.42199707,-0.663574219,0.540527344,1.91015625,0.7890625,0.80078125,0.0390625,8.4375,4.5703125,1.01171875,-1.44140625,1.7265625
37,326615,626615,0.294067383,-0.431213379,-0.658996582,0.541564941,1.94921875,0.24609375,0.25390625,0.5,8.484375,4.4296875,1.01171875,-1.44140625,1.7265625
38,341715,641715,0.288757324,-0.440307617,-0.654296875,0.54284668,1.94921875,0.24609375,0.25390625,0.5,8.484375,4.4296875,0.814453125,-1.25585938,1.58984375
39,347929,647929,0.282714844,-0.448181152,-0.65045166,0.544189453,1.12890625,2.93359375,3.0078125,0.8984375,8.5546875,4.2421875,0.814453125,-1.25585938,1.58984375
40,360902,660902,0.275817871,-0.454772949,-0.647583008,0.545654297,1.12890625,2.93359375,3.0078125,0.8984375,8.5546875,4.2421875,0.1171875,-1.32226562,1.47265625
41,369498,669498,0.268920898,-0.460266113,-0.645324707,0.547119141,0.90625,3.24609375,2.42578125,1.2734375,8.546875,4.1328125,0.1171875,-1.32226562,1.47265625
42,381008,681008,0.261962891,-0.466247559,-0.64276123,0.548522949,0.90625,3.24609375,2.42578125,1.2734375,8.546875,4.1328125,0.25,-1.21875,1.3671875
43,387802,687802,0.255981445,-0.472473145,-0.639648438,0.549621582,0.75390625,0.90234375,0.4921875,1.6171875,8.515625,4.078125,0.25,-1.21875,1.3671875
44,401216,701216,0.251159668,-0.478942871,-0.636047363,0.550415039,0.75390625,0.90234375,0.4921875,1.6171875,8.515625,4.078125,0.70703125,-1.01171875,1.265625
45,406597,706597,0.247375488,-0.485473633,-0.632019043,0.551025391,0.81640625,0.48046875,0.00390625,1.9375,8.515625,3.953125,0.70703125,-1.01171875,1.265625
46,420649,720649,0.244018555,-0.4921875,-0.627563477,0.551635742,0.81640625,0.48046875,0.00390625,1.9375,8.515625,3.953125,0.876953125,-0.837890625,1.18945312
47,428516,728516,0.240844727,-0.498413086,-0.623352051,0.552246094,0.45703125,0.89453125,0.7578125,2.21875,8.5234375,3.7734375,0.876953125,-0.837890625,1.18945312
48,441367,741367,0.237060547,-0.504699707,-0.619140625,0.55291748,0.45703125,0.89453125,0.7578125,2.21875,8.5234375,3.7734375,0.654296875,-0.89453125,1.21875
49,448440,748440,0.232727051,-0.510375977,-0.61541748,0.553710938,0.30078125,1.1640625,1.08203125,2.4921875,8.5234375,3.6015625,0.654296875,-0.89453125,1.21875
50,461442,761442,0.227722168,-0.51574707,-0.612060547,0.554504395,0.30078125,1.1640625,1.08203125,2.4921875,8.5234375,3.6015625,0.34375,-0.99609375,1.24609375
51,467646,767646,0.222290039,-0.520996094,-0.608886719,0.555358887,0.32421875,0.87890625,0.6796875,2.7734375,8.5,3.46875,0.34375,-0.99609375,1.24609375
52,480643,780643,0.216796875,-0.526184082,-0.605712891,0.556091309,0.32421875,0.87890625,0.6796875,2.7734375,8.5,3.46875,0.310546875,-1.0078125,1.23632812
53,487394,787394,0.211791992,-0.531005859,-0.602661133,0.556762695,0.58203125,0.29296875,0.14453125,3.0546875,8.4375,3.3515625,0.310546875,-1.0078125,1.23632812
54,501733,801733,0.20690918,-0.536071777,-0.599243164,0.557434082,0.58203125,0.29296875,0.14453125,3.0546875,8.4375,3.3515625,0.419921875,-0.875,1.1328125
55,507404,807404,0.202514648,-0.540893555,-0.595825195,0.558044434,0.890625,0.453125,0.375,3.3203125,8.390625,3.234375,0.419921875,-0.875,1.1328125
56,520928,820928,0.198120117,-0.545349121,-0.592590332,0.55871582,0.890625,0.453125,0.375,3.3203125,8.390625,3.234375,0.31640625,-0.8125,1.08789062
57,527696,827696,0.19354248,-0.549438477,-0.589660645,0.559387207,0.71484375,0.8515625,0.84765625,3.5703125,8.3359375,3.109375,0.31640625,-0.8125,1.08789062
58,541618,841618,0.188720703,-0.553283691,-0.586914062,0.560119629,0.71484375,0.8515625,0.84765625,3.5703125,8.3359375,3.109375,0.15625,-0.80859375,1.0625
59,547247,847247,0.183837891,-0.557006836,-0.584289551,0.560852051,0.64453125,0.49609375,0.48046875,3.796875,8.2734375,3.015625,0.15625,-0.80859375,1.0625
60,559777,859777,0.179077148,-0.560546875,-0.581665039,0.561645508,0.64453125,0.49609375,0.48046875,3.796875,8.2734375,3.015625,0.142578125,-0.755859375,1.04882812
61,567722,867722,0.174621582,-0.563842773,-0.579101562,0.56237793,0.5703125,0.41015625,0.4453125,4.0234375,8.203125,2.9375,0.142578125,-0.755859375,1.04882812
62,584443,884443,0.17010498,-0.567382812,-0.57623291,0.563171387,0.5703125,0.41015625,0.4453125,4.0234375,8.203125,2.9375,0.19921875,-0.681640625,0.982421875
63,587451,887451,0.166259766,-0.570495605,-0.573608398,0.563781738,0.359375,0.91015625,0.73046875,4.234375,8.125,2.84375,0.19921875,-0.681640625,0.982421875
64,601186,901186,0.162475586,-0.573730469,-0.570861816,0.56439209,0.359375,0.91015625,0.73046875,4.234375,8.125,2.84375,0.21875,-0.58984375,0.84765625
65,607382,907382,0.159179688,-0.576538086,-0.56842041,0.564880371,0.23828125,1.203125,0.66015625,4.4296875,8.0625,2.7578125,0.21875,-0.58984375,0.84765625
66,620957,920957,0.156555176,-0.578857422,-0.56640625,0.565307617,0.23828125,1.203125,0.66015625,4.4296875,8.0625,2.7578125,0.177734375,-0.421875,0.6328125
67,627151,927151,0.15423584,-0.580993652,-0.564453125,0.565673828,0.25390625,1.06640625,0.6640625,4.5703125,8.0078125,2.6796875,0.177734375,-0.421875,0.6328125
68,640978,940978,0.152526855,-0.582763672,-0.562805176,0.566040039,0.25390625,1.06640625,0.6640625,4.5703125,8.0078125,2.6796875,0.181640625,-0.26171875,0.44140625
69,647155,947155,0.151184082,-0.58416748,-0.561401367,0.566345215,0.21875,1.14453125,0.640625,4.6796875,7.96875,2.625,0.181640625,-0.26171875,0.44140625
70,660686,960686,0.15032959,-0.585083008,-0.560302734,0.566650391,0.21875,1.14453125,0.640625,4.6796875,7.96875,2.625,0.111328125,-0.09375,0.248046875
71,669170,969170,0.149780273,-0.585693359,-0.559509277,0.566955566,0.03515625,1.6953125,0.765625,4.75,7.953125,2.578125,0.111328125,-0.09375,0.248046875
72,680208,980208,0.149597168,-0.58605957,-0.558959961,0.567199707,0.03515625,1.6953125,0.765625,4.75,7.953125,2.578125,0.056640625,0.01171875,0.072265625
73,687051,987051,0.149841309,-0.58605957,-0.55871582,0.567321777,-0.1953125,1.90234375,0.7421875,4.7890625,7.9375,2.5625,0.056640625,0.01171875,0.072265625
74,700985,1000985,0.15057373,-0.58581543,-0.558837891,0.567321777,-0.1953125,1.90234375,0.7421875,4.7890625,7.9375,2.5625,0.0390625,0.138671875,-0.16796875
75,707167,1007167,0.151916504,-0.585266113,-0.559204102,0.567199707,-0.21875,2.1171875,0.734375,4.7734375,7.953125,2.5703125,0.0390625,0.138671875,-0.16796875
76,720208,1020208,0.153930664,-0.584289551,-0.559814453,0.567016602,-0.21875,2.1171875,0.734375,4.7734375,7.953125,2.5703125,0.052734375,0.35546875,-0.412109375
77,727523,1027523,0.156616211,-0.582824707,-0.560791016,0.566833496,0.06640625,2.35546875,1.1796875,4.71875,7.984375,2.5859375,0.052734375,0.35546875,-0.412109375
78,741311,1041311,0.159729004,-0.580566406,-0.56237793,0.566650391,0.06640625,2.35546875,1.1796875,4.71875,7.984375,2.5859375,-0.13671875,0.5859375,-0.724609375
79,746936,1046936,0.163391113,-0.577514648,-0.564880371,0.566345215,-0.0859375,3.41015625,2.04296875,4.6015625,8.0390625,2.640625,-0.13671875,0.5859375,-0.724609375
80,760100,1060100,0.167541504,-0.573486328,-0.56817627,0.565917969,-0.0859375,3.41015625,2.04296875,4.6015625,8.0390625,2.640625,-0.42578125,0.8515625,-1.16210938
81,767416,1067416,0.172546387,-0.56842041,-0.57232666,0.565307617,0.24609375,3.83203125,2.1640625,4.421875,8.1171875,2.75,-0.42578125,0.8515625,-1.16210938
82,781207,1081207,0.178466797,-0.56237793,-0.577331543,0.56439209,0.24609375,3.83203125,2.1640625,4.421875,8.1171875,2.75,-0.599609375,1.1640625,-1.6484375
83,787402,1087402,0.185180664,-0.555419922,-0.582885742,0.563415527,0.8828125,4.11328125,2.2578125,4.1328125,8.21875,2.921875,-0.599609375,1.1640625,-1.6484375
84,799855,1099855,0.192810059,-0.547363281,-0.589172363,0.562194824,0.8828125,4.11328125,2.2578125,4.1328125,8.21875,2.921875,-0.7578125,1.5234375,-2.10742188
85,807162,1107162,0.201538086,-0.538208008,-0.596008301,0.560791016,1.6875,4.15625,2.33984375,3.75,8.328125,3.1484375,-0.7578125,1.5234375,-2.10742188
86,820971,1120971,0.210998535,-0.527893066,-0.603393555,0.559204102,1.6875,4.15625,2.33984375,3.75,8.328125,3.1484375,-0.931640625,1.90625,-2.546875
87,827172,1127172,0.221130371,-0.516601562,-0.61114502,0.557434082,2.76953125,3.73046875,2.5703125,3.2421875,8.4453125,3.4140625,-0.931640625,1.90625,-2.546875
88,840723,1140723,0.231628418,-0.504333496,-0.619140625,0.555541992,2.76953125,3.73046875,2.5703125,3.2421875,8.4453125,3.4140625,-1.15234375,2.1796875,-2.83789062
89,849732,1149732,0.242126465,-0.491333008,-0.627197266,0.553649902,3.5234375,2.82421875,1.76953125,2.640625,8.546875,3.71875,-1.15234375,2.1796875,-2.83789062
90,860242,1160242,0.253295898,-0.476806641,-0.635620117,0.551757812,3.5234375,2.82421875,1.76953125,2.640625,8.546875,3.71875,-1.32617188,2.41796875,-2.93554688
91,866807,1166807,0.263977051,-0.462463379,-0.643432617,0.549926758,3.26953125,2.59375,1.87109375,1.9765625,8.5859375,4.0390625,-1.32617188,2.41796875,-2.93554688
92,879855,1179855,0.275146484,-0.44708252,-0.651245117,0.547973633,3.26953125,2.59375,1.87109375,1.9765625,8.5859375,4.0390625,-1.31445312,2.46484375,-2.81054688
93,887172,1187172,0.286254883,-0.432067871,-0.658203125,0.546020508,3.625,1.67578125,1.58984375,1.2734375,8.5859375,4.359375,-1.31445312,2.46484375,-2.81054688
94,899141,1199141,0.297729492,-0.417602539,-0.66418457,0.543884277,3.625,1.67578125,1.58984375,1.2734375,8.5859375,4.359375,-0.94921875,2.63085938,-2.78320312
95,907115,1207115,0.309509277,-0.403869629,-0.669189453,0.541564941,3.8984375,0.83984375,1.17578125,0.578125,8.5390625,4.6171875,-0.94921875,2.63085938,-2.78320312
96,919931,1219931,0.322814941,-0.389343262,-0.673706055,0.538757324,3.8984375,0.83984375,1.17578125,0.578125,8.5390625,4.6171875,-0.599609375,2.77148438,-2.71875
97,929500,1229500,0.335510254,-0.375854492,-0.677429199,0.536010742,4.08984375,0.34375,0.5703125,-0.1484375,8.5,4.765625,-0.599609375,2.77148438,-2.71875
98,941190,1241190,0.348754883,-0.361572266,-0.680847168,0.53302002,4.08984375,0.34375,0.5703125,-0.1484375,8.5,4.765625,-0.5703125,2.8515625,-2.69140625
99,946960,1246960,0.36138916,-0.347351074,-0.683959961,0.530090332,3.95703125,0.98828125,0.69140625,-0.859375,8.4296875,4.8359375,-0.5703125,2.8515625,-2.69140625
100,959990,1259990,0.373840332,-0.332275391,-0.687011719,0.527099609,3.95703125,0.98828125,0.69140625,-0.859375,8.4296875,4.8359375,-0.76171875,2.75976562,-2.59375
101,967311,1267311,0.385620117,-0.317199707,-0.689941406,0.524047852,2.41796875,0.6171875,0.3203125,-1.578125,8.3046875,4.8984375,-0.76171875,2.75976562,-2.59375
102,979143,1279143,0.39654541,-0.30267334,-0.692504883,0.521118164,2.41796875,0.6171875,0.3203125,-1.578125,8.3046875,4.8984375,-0.791015625,2.63476562,-2.48828125
103,986979,1286979,0.406799316,-0.288696289,-0.694824219,0.518066406,1.734375,0.390625,0.328125,-2.2734375,8.1484375,4.9296875,-0.791015625,2.63476562,-2.48828125
104,1000077,1300077,0.417480469,-0.273742676,-0.69720459,0.514526367,1.734375,0.390625,0.328125,-2.2734375,8.1484375,4.9296875,-0.80078125,2.51367188,-2.49023438
105,1009648,1309648,0.427001953,-0.259643555,-0.69934082,0.511047363,1.078125,0.81640625,0.62890625,-2.921875,7.953125,4.9375,-0.80078125,2.51367188,-2.49023438
106,1021016,1321016,0.436584473,-0.244689941,-0.701538086,0.507263184,1.078125,0.81640625,0.62890625,-2.921875,7.953125,4.9375,-0.9140625,2.42382812,-2.48046875
107,1027211,1327211,0.445617676,-0.229675293,-0.703674316,0.503479004,1.359375,0.78125,0.94921875,-3.546875,7.71875,4.921875,-0.9140625,2.42382812,-2.48046875
108,1040403,1340403,0.454528809,-0.213867188,-0.705810547,0.499511719,1.359375,0.78125,0.94921875,-3.546875,7.71875,4.921875,-1.12890625,2.45117188,-2.60546875
109,1047150,1347150,0.463012695,-0.197265625,-0.707946777,0.495483398,1.5625,1.875,1.84765625,-4.171875,7.4296875,4.90625,-1.12890625,2.45117188,-2.60546875
110,1060743,1360743,0.471069336,-0.180664062,-0.709838867,0.491516113,1.5625,1.875,1.84765625,-4.171875,7.4296875,4.90625,-1.26757812,2.50390625,-2.61328125
111,1067032,1367032,0.479187012,-0.164672852,-0.71105957,0.487548828,2.11328125,1.3359375,0.890625,-4.796875,7.0859375,4.8671875,-1.26757812,2.50390625,-2.61328125
112,1080085,1380085,0.488769531,-0.148376465,-0.711364746,0.482727051,2.11328125,1.3359375,0.890625,-4.796875,7.0859375,4.8671875,-0.69921875,2.71484375,-2.44335938
113,1092874,1392874,0.498718262,-0.134765625,-0.710693359,0.477539062,2.3984375,-1.109375,-1.875,-5.390625,6.734375,4.7578125,-0.69921875,2.71484375,-2.44335938
114,1100356,1400356,0.510375977,-0.121765137,-0.70904541,0.471069336,2.3984375,-1.109375,-1.875,-5.390625,6.734375,4.7578125,0.14453125,2.94140625,-2.36132812
115,1107694,1407694,0.5234375,-0.109069824,-0.706665039,0.463317871,2.125,-1.4375,-2.0625,-5.9609375,6.453125,4.484375,0.14453125,2.94140625,-2.36132812
116,1120265,1420265,0.535888672,-0.0975952148,-0.704101562,0.455505371,2.125,-1.4375,-2.0625,-5.9609375,6.453125,4.484375,0.453125,2.921875,-2.35351562
117,1127584,1427584,0.547912598,-0.0861816406,-0.701477051,0.447570801,1.42578125,-1.2578125,-1.37890625,-6.5234375,6.1953125,4.0703125,0.453125,2.921875,-2.35351562
118,1139137,1439137,0.559143066,-0.0745849609,-0.698791504,0.439880371,1.42578125,-1.2578125,-1.37890625,-6.5234375,6.1953125,4.0703125,0.1875,2.70117188,-2.24609375
119,1146990,1446990,0.568786621,-0.0635375977,-0.696228027,0.433227539,1.6171875,-1.24609375,-0.46484375,-7.0234375,5.9140625,3.65625,0.1875,2.70117188,-2.24609375
120,1159958,1459958,0.57824707,-0.0512084961,-0.69354248,0.426635742,1.6171875,-1.24609375,-0.46484375,-7.0234375,5.9140625,3.65625,-0.169921875,2.45507812,-2.09570312
121,1169101,1469101,0.586364746,-0.0396728516,-0.690979004,0.420837402,1.6171875,-1.859375,-0.75,-7.4453125,5.609375,3.2890625,-0.169921875,2.45507812,-2.09570312
122,1180256,1480256,0.594238281,-0.0277709961,-0.688293457,0.415100098,1.6171875,-1.859375,-0.75,-7.4453125,5.609375,3.2890625,-0.30859375,2.30859375,-1.97851562
123,1187065,1487065,0.601501465,-0.016418457,-0.685668945,0.409667969,2.22265625,-1.625,-0.9296875,-7.8203125,5.296875,2.96875,-0.30859375,2.30859375,-1.97851562
124,1199595,1499595,0.608886719,-0.00457763672,-0.682739258,0.403808594,2.22265625,-1.625,-0.9296875,-7.8203125,5.296875,2.96875,-0.244140625,2.1796875,-1.87890625
125,1207285,1507285,0.615722656,0.00598144531,-0.679870605,0.398254395,2.51171875,-2.1015625,-2.32421875,-8.1484375,4.96875,2.640625,-0.244140625,2.1796875,-1.87890625
126,1220623,1520623,0.622497559,0.0160522461,-0.676818848,0.392700195,2.51171875,-2.1015625,-2.32421875,-8.1484375,4.96875,2.640625,-0.099609375,2.10742188,-1.72460938
127,1227386,1527386,0.62890625,0.0253295898,-0.673706055,0.387268066,2.56640625,-1.98828125,-2.2578125,-8.4296875,4.6640625,2.3046875,-0.099609375,2.10742188,-1.72460938
128,1240712,1540712,0.635131836,0.0345458984,-0.670471191,0.381896973,2.56640625,-1.98828125,-2.2578125,-8.4296875,4.6640625,2.3046875,-0.119140625,1.95507812,-1.57421875
129,1247606,1547606,0.641296387,0.0440063477,-0.667114258,0.376525879,2.1015625,-1.90625,-1.97265625,-8.65625,4.390625,1.984375,-0.119140625,1.95507812,-1.57421875
130,1260841,1560841,0.647033691,0.0526733398,-0.663757324,0.371459961,2.1015625,-1.90625,-1.97265625,-8.65625,4.390625,1.984375,-0.0703125,1.890625,-1.47265625
131,1267257,1567257,0.65234375,0.060546875,-0.660583496,0.366638184,1.68359375,-1.69921875,-1.5625,-8.8515625,4.109375,1.6484375,-0.0703125,1.890625,-1.47265625
132,1287884,1587884,0.657653809,0.068359375,-0.657226562,0.361816406,1.68359375,-1.69921875,-1.5625,-8.8515625,4.109375,1.6484375,-0.060546875,1.7265625,-1.29882812
133,1294422,1594422,0.662475586,0.0759277344,-0.653930664,0.35748291,1.54296875,-1.57421875,-1.82421875,-9.015625,3.8671875,1.3359375,-0.060546875,1.7265625,-1.29882812
134,1302524,1602524,0.666687012,0.0833740234,-0.650817871,0.35357666,1.54296875,-1.57421875,-1.82421875,-9.015625,3.8671875,1.3359375,-0.244140625,1.5234375,-1.19140625
135,1307800,1607800,0.670654297,0.0910644531,-0.647705078,0.349975586,1.62890625,-1.26953125,-1.3125,-9.140625,3.640625,1.0546875,-0.244140625,1.5234375,-1.19140625
136,1319366,1619366,0.67388916,0.0980834961,-0.644958496,0.346801758,1.62890625,-1.26953125,-1.3125,-9.140625,3.640625,1.0546875,-0.318359375,1.328125,-1.09179688
137,1327645,1627645,0.677001953,0.104980469,-0.642211914,0.34375,1.77734375,-2.046875,-2.87109375,-9.25,3.421875,0.8125,-0.318359375,1.328125,-1.09179688
138,1341953,1641953,0.679931641,0.110961914,-0.639709473,0.340820312,1.77734375,-2.046875,-2.87109375,-9.25,3.421875,0.8125,-0.173828125,1.15625,-0.904296875
139,1347800,1647800,0.682678223,0.116027832,-0.637390137,0.33795166,1.70703125,-2.16015625,-2.99609375,-9.3359375,3.2265625,0.59375,-0.173828125,1.15625,-0.904296875
140,1361585,1661585,0.685241699,0.120300293,-0.635253906,0.335266113,1.70703125,-2.16015625,-2.99609375,-9.3359375,3.2265625,0.59375,-0.01953125,0.908203125,-0.671875
141,1367398,1667398,0.687438965,0.123901367,-0.633483887,0.332885742,1.03515625,-2.046875,-2.51171875,-9.390625,3.078125,0.4140625,-0.01953125,0.908203125,-0.671875
142,1382335,1682335,0.689208984,0.12701416,-0.631896973,0.330993652,1.03515625,-2.046875,-2.51171875,-9.390625,3.078125,0.4140625,-0.087890625,0.626953125,-0.482421875
143,1387614,1687614,0.690429688,0.129760742,-0.630737305,0.329650879,1.03515625,-1.78515625,-2.24609375,-9.4296875,2.96875,0.265625,-0.087890625,0.626953125,-0.482421875
144,1401486,1701486,0.691162109,0.132080078,-0.629821777,0.328857422,1.03515625,-1.78515625,-2.24609375,-9.4296875,2.96875,0.265625,-0.162109375,0.330078125,-0.30078125
145,1411804,1711804,0.691589355,0.133666992,-0.629272461,0.328369141,1.28125,-2.3203125,-2.69921875,-9.4453125,2.890625,0.1796875,-0.162109375,0.330078125,-0.30078125
146,1421383,1721383,0.691894531,0.13458252,-0.62902832,0.327941895,1.28125,-2.3203125,-2.69921875,-9.4453125,2.890625,0.1796875,0.0078125,0.087890625,-0.099609375
147,1427774,1727774,0.691955566,0.134521484,-0.629089355,0.327636719,1.6328125,-2.625,-3.65625,-9.453125,2.8515625,0.140625,0.0078125,0.087890625,-0.099609375
148,1442131,1742131,0.691894531,0.133300781,-0.629516602,0.327453613,1.6328125,-2.625,-3.65625,-9.453125,2.8515625,0.140625,0.2578125,-0.20703125,0.1796875
149,1447380,1747380,0.691650391,0.13079834,-0.630371094,0.327392578,2.046875,-3.20703125,-4.46875,-9.4453125,2.859375,0.1484375,0.2578125,-0.20703125,0.1796875
150,1461593,1761593,0.691101074,0.127197266,-0.631530762,0.327697754,2.046875,-3.20703125,-4.46875,-9.4453125,2.859375,0.1484375,0.439453125,-0.572265625,0.537109375
151,1467416,1767416,0.689941406,0.122680664,-0.633178711,0.328735352,1.640625,-2.95703125,-3.13671875,-9.421875,2.9140625,0.1953125,0.439453125,-0.572265625,0.537109375
152,1480887,1780887,0.687866211,0.117675781,-0.635253906,0.330749512,1.640625,-2.95703125,-3.13671875,-9.421875,2.9140625,0.1953125,0.185546875,-1.02734375,0.8046875
153,1487313,1787313,0.684997559,0.112854004,-0.637695312,0.333740234,1.3203125,-2.73828125,-2.5625,-9.3671875,3.0390625,0.3125,0.185546875,-1.02734375,0.8046875
154,1500349,1800349,0.680847168,0.107299805,-0.640869141,0.33795166,1.3203125,-2.73828125,-2.5625,-9.3671875,3.0390625,0.3125,-0.125,-1.48046875,1.01367188
155,1507392,1807392,0.676025391,0.101074219,-0.64440918,0.342712402,1.625,-3.09375,-3.47265625,-9.2890625,3.203125,0.53125,-0.125,-1.48046875,1.01367188
156,1520889,1820889,0.671020508,0.09375,-0.648254395,0.347473145,1.625,-3.09375,-3.47265625,-9.2890625,3.203125,0.53125,0.158203125,-1.84765625,1.32617188
157,1527266,1827266,0.666381836,0.0849609375,-0.652038574,0.351501465,2.2109375,-4.375,-5.0859375,-9.1875,3.4140625,0.84375,0.158203125,-1.84765625,1.32617188
158,1541207,1841207,0.661682129,0.0732421875,-0.656188965,0.355285645,2.2109375,-4.375,-5.0859375,-9.1875,3.4140625,0.84375,0.927734375,-2.01953125,1.74804688
159,1547679,1847679,0.657287598,0.0599975586,-0.66003418,0.358825684,2.8984375,-5.59765625,-5.6875,-9.03125,3.6796875,1.140625,0.927734375,-2.01953125,1.74804688
160,1560488,1860488,0.652709961,0.0466308594,-0.663635254,0.362487793,2.8984375,-5.59765625,-5.6875,-9.03125,3.6796875,1.140625,0.94921875,-2.11328125,1.95898438
161,1571897,1871897,0.647338867,0.0342407227,-0.667236328,0.366943359,2.1953125,-2.44140625,-2.0234375,-8.828125,4.046875,1.421875,0.94921875,-2.11328125,1.95898438
162,1581637,1881637,0.639587402,0.0219116211,-0.671569824,0.373413086,2.1953125,-2.44140625,-2.0234375,-8.828125,4.046875,1.421875,0.00390625,-2.61523438,2.06640625
163,1587589,1887589,0.630126953,0.0101928711,-0.676330566,0.381286621,0.56640625,-0.2578125,-0.8046875,-8.578125,4.390625,1.7734375,0.00390625,-2.61523438,2.06640625
164,1601583,1901583,0.620056152,-0.00146484375,-0.681091309,0.389404297,0.56640625,-0.2578125,-0.8046875,-8.578125,4.390625,1.7734375,-0.1796875,-2.95507812,2.24023438
165,1607630,1907630,0.610107422,-0.0139160156,-0.68560791,0.396911621,0.8984375,-1.63671875,-2.46875,-8.2578125,4.734375,2.25,-0.1796875,-2.95507812,2.24023438
166,1621590,1921590,0.599853516,-0.0294189453,-0.689941406,0.40411377,0.8984375,-1.63671875,-2.46875,-8.2578125,4.734375,2.25,0.66015625,-2.96875,2.48046875
167,1627444,1927444,0.591247559,-0.0454711914,-0.69329834,0.409484863,2.9296875,-3.62890625,-5.14453125,-7.875,5.1171875,2.703125,0.66015625,-2.96875,2.48046875
168,1640491,1940491,0.583862305,-0.0618896484,-0.695800781,0.413696289,2.9296875,-3.62890625,-5.14453125,-7.875,5.1171875,2.703125,1.23632812,-2.515625,2.35546875
169,1651881,1951881,0.577331543,-0.077331543,-0.697570801,0.417297363,3.46484375,-1.75,-2.953125,-7.453125,5.5390625,3,1.23632812,-2.515625,2.35546875
170,1661319,1961319,0.569824219,-0.09375,-0.69921875,0.421386719,3.46484375,-1.75,-2.953125,-7.453125,5.5390625,3,1.08007812,-2.52148438,2.41796875
171,1667729,1967729,0.561523438,-0.110168457,-0.700805664,0.425964355,1.6640625,0.38671875,0.90625,-7.03125,5.9296875,3.203125,1.08007812,-2.52148438,2.41796875
172,1682574,1982574,0.552429199,-0.126464844,-0.702148438,0.431030273,1.6640625,0.38671875,0.90625,-7.03125,5.9296875,3.203125,0.84765625,-2.74609375,2.69726562
173,1692256,1992256,0.542663574,-0.143005371,-0.703186035,0.436523438,0.89453125,0.05859375,1.4765625,-6.53125,6.3359375,3.4375,0.84765625,-2.74609375,2.69726562
174,1701756,2001756,0.531982422,-0.160949707,-0.703796387,0.442504883,0.89453125,0.05859375,1.4765625,-6.53125,6.3359375,3.4375,0.9609375,-3.00195312,3.1328125
175,1707622,2007622,0.521118164,-0.179748535,-0.703552246,0.448425293,1.6875,-0.77734375,-1.09375,-5.9453125,6.75,3.671875,0.9609375,-3.00195312,3.1328125
176,1721615,2021615,0.511230469,-0.199035645,-0.702392578,0.453491211,1.6875,-0.77734375,-1.09375,-5.9453125,6.75,3.671875,1.53515625,-2.74609375,3.1640625
177,1731199,2031199,0.503356934,-0.218200684,-0.700256348,0.456787109,2.6328125,-1.859375,-2.1640625,-5.28125,7.1796875,3.8203125,1.53515625,-2.74609375,3.1640625
178,1741812,2041812,0.496948242,-0.238037109,-0.697143555,0.458679199,2.6328125,-1.859375,-2.1640625,-5.28125,7.1796875,3.8203125,2.15820312,-2.11328125,2.67382812
179,1749155,2049155,0.490966797,-0.256103516,-0.693725586,0.460571289,3.2890625,1.703125,0.88671875,-4.671875,7.6015625,3.7578125,2.15820312,-2.11328125,2.67382812
180,1760196,2060196,0.483703613,-0.27142334,-0.691040039,0.463500977,3.2890625,1.703125,0.88671875,-4.671875,7.6015625,3.7578125,0.9765625,-2.09375,2.55664062
181,1767277,2067277,0.474304199,-0.284362793,-0.689453125,0.467773438,2.04296875,6.1953125,3.37890625,-4.1171875,7.9375,3.6796875,0.9765625,-2.09375,2.55664062
182,1781600,2081600,0.461853027,-0.29675293,-0.688659668,0.473693848,2.04296875,6.1953125,3.37890625,-4.1171875,7.9375,3.6796875,-0.21484375,-2.43554688,2.71289062
183,1788389,2088389,0.448791504,-0.308288574,-0.688049316,0.479736328,1.375,2.6796875,2.734375,-3.5234375,8.15625,3.7890625,-0.21484375,-2.43554688,2.71289062
184,1801467,2101467,0.43560791,-0.320678711,-0.686889648,0.485351562,1.375,2.6796875,2.734375,-3.5234375,8.15625,3.7890625,0.1484375,-2.54492188,2.81835938
185,1811866,2111866,0.424133301,-0.333496094,-0.684875488,0.489746094,2.171875,0.1875,0.109375,-2.8671875,8.3125,3.9609375,0.1484375,-2.54492188,2.81835938
186,1820841,2120841,0.414367676,-0.348510742,-0.681274414,0.492675781,2.171875,0.1875,0.109375,-2.8671875,8.3125,3.9609375,1.48046875,-2.1484375,2.578125
187,1827309,2127309,0.408081055,-0.364135742,-0.676086426,0.493774414,3.72265625,-2.453125,-2.25,-2.234375,8.5,3.9453125,1.48046875,-2.1484375,2.578125
188,1841845,2141845,0.404052734,-0.379150391,-0.66986084,0.49420166,3.72265625,-2.453125,-2.25,-2.234375,8.5,3.9453125,1.93554688,-1.27734375,2.015625
189,1850854,2150854,0.399414062,-0.391906738,-0.664428711,0.495361328,2.88671875,2.8671875,2.046875,-1.703125,8.734375,3.671875,1.93554688,-1.27734375,2.015625
190,1861447,2161447,0.391967773,-0.401733398,-0.661010742,0.498046875,2.88671875,2.8671875,2.046875,-1.703125,8.734375,3.671875,0.1328125,-1.68945312,2.23242188
191,1868240,2168240,0.380249023,-0.409912109,-0.659362793,0.502624512,2.1875,5.921875,4.67578125,-1.234375,8.859375,3.53125,0.1328125,-1.68945312,2.23242188
192,1881921,2181921,0.367126465,-0.41619873,-0.658996582,0.507629395,2.1875,5.921875,4.67578125,-1.234375,8.859375,3.53125,-0.95703125,-2,2.27929688
193,1890875,2190875,0.353881836,-0.422851562,-0.658508301,0.512207031,1.87109375,2.0546875,2.4375,-0.6875,8.859375,3.6640625,-0.95703125,-2,2.27929688
194,1901028,2201028,0.342346191,-0.430664062,-0.656860352,0.515625,1.87109375,2.0546875,2.4375,-0.6875,8.859375,3.6640625,0.052734375,-1.94140625,2.21679688
195,1908935,2208935,0.332702637,-0.440368652,-0.653442383,0.518066406,2.17578125,-1.8671875,-1.34375,-0.1484375,8.8359375,3.765625,0.052734375,-1.94140625,2.21679688
196,1921775,2221775,0.325256348,-0.451599121,-0.64831543,0.519592285,2.17578125,-1.8671875,-1.34375,-0.1484375,8.8359375,3.765625,1.28320312,-1.4921875,2.04296875
197,1930190,2230190,0.319580078,-0.463195801,-0.642028809,0.520690918,2.34765625,-0.99609375,-0.78125,0.3671875,8.8828125,3.625,1.28320312,-1.4921875,2.04296875
198,1942345,2242345,0.314453125,-0.473449707,-0.636047363,0.521911621,2.34765625,-0.99609375,-0.78125,0.3671875,8.8828125,3.625,1.14648438,-1.265625,1.97265625
199,1948005,2248005,0.307800293,-0.482849121,-0.630737305,0.523742676,2.125,2.88671875,2.42578125,0.8203125,8.9453125,3.3671875,1.14648438,-1.265625,1.97265625
200,1961483,2261483,0.299255371,-0.490661621,-0.62677002,0.526184082,2.125,2.88671875,2.42578125,0.8203125,8.9453125,3.3671875,0.033203125,-1.45898438,2.03320312
201,1971224,2271224,0.289245605,-0.497070312,-0.624084473,0.528991699,1.82421875,3.62109375,2.8671875,1.2734375,8.9375,3.234375,0.033203125,-1.45898438,2.03320312
202,1980819,2280819,0.278198242,-0.502746582,-0.622070312,0.531860352,1.82421875,3.62109375,2.8671875,1.2734375,8.9375,3.234375,-0.474609375,-1.57226562,1.96875
203,1989282,2289282,0.268005371,-0.508056641,-0.620117188,0.534362793,1.78515625,1.33203125,0.796875,1.734375,8.8515625,3.234375,-0.474609375,-1.57226562,1.96875
204,2001582,2301582,0.258178711,-0.514160156,-0.61730957,0.536560059,1.78515625,1.33203125,0.796875,1.734375,8.8515625,3.234375,0.0390625,-1.42578125,1.83789062
205,2011607,2311607,0.249755859,-0.520935059,-0.613525391,0.538330078,1.85546875,0.23046875,-0.3828125,2.1640625,8.765625,3.2265625,0.0390625,-1.42578125,1.83789062
206,2020665,2320665,0.243408203,-0.527770996,-0.609130859,0.539611816,1.85546875,0.23046875,-0.3828125,2.1640625,8.765625,3.2265625,0.703125,-1.07617188,1.5859375
207,2028016,2328016,0.238464355,-0.534790039,-0.604064941,0.540588379,2.15234375,0.41015625,0.2890625,2.5546875,8.703125,3.09375,0.703125,-1.07617188,1.5859375
208,2040964,2340964,0.234436035,-0.541442871,-0.598876953,0.541503906,2.15234375,0.41015625,0.2890625,2.5546875,8.703125,3.09375,0.880859375,-0.837890625,1.41015625
209,2049866,2349866,0.230163574,-0.547790527,-0.59387207,0.542541504,1.45703125,1.4765625,1.28515625,2.8671875,8.671875,2.8984375,0.880859375,-0.837890625,1.41015625
210,2059759,2359759,0.225158691,-0.553344727,-0.589477539,0.543701172,1.45703125,1.4765625,1.28515625,2.8671875,8.671875,2.8984375,0.41015625,-0.884765625,1.44140625
211,2067664,2367664,0.219665527,-0.558044434,-0.585876465,0.545043945,1.11328125,1.8671875,1.421875,3.171875,8.625,2.7265625,0.41015625,-0.884765625,1.44140625
212,2080649,2380649,0.21307373,-0.56262207,-0.582580566,0.546447754,1.11328125,1.8671875,1.421875,3.171875,8.625,2.7265625,0.041015625,-0.94140625,1.41015625
213,2090483,2390483,0.206665039,-0.566589355,-0.579833984,0.547790527,0.93359375,1.26171875,0.6328125,3.46875,8.5390625,2.6328125,0.041015625,-0.94140625,1.41015625
214,2101291,2401291,0.199829102,-0.57043457,-0.577209473,0.549072266,0.93359375,1.26171875,0.6328125,3.46875,8.5390625,2.6328125,-0.0703125,-0.923828125,1.31835938
215,2108071,2408071,0.19317627,-0.57409668,-0.574707031,0.550292969,0.68359375,1.01171875,0.3984375,3.7578125,8.4453125,2.5625,-0.0703125,-0.923828125,1.31835938
216,2119883,2419883,0.187194824,-0.577392578,-0.57244873,0.551269531,0.68359375,1.01171875,0.3984375,3.7578125,8.4453125,2.5625,-0.05078125,-0.845703125,1.14648438
217,2129941,2429941,0.181518555,-0.580566406,-0.570251465,0.552062988,0.6171875,1.04296875,0.67578125,4.015625,8.3359375,2.515625,-0.05078125,-0.845703125,1.14648438
218,2139699,2439699,0.176391602,-0.583496094,-0.56817627,0.55279541,0.6171875,1.04296875,0.67578125,4.015625,8.3359375,2.515625,0,-0.7109375,0.98046875
219,2147733,2447733,0.172058105,-0.58605957,-0.56628418,0.553405762,0.703125,1.32421875,0.62109375,4.234375,8.25,2.453125,0,-0.7109375,0.98046875
220,2161190,2461190,0.16796875,-0.588684082,-0.56427002,0.553955078,0.703125,1.32421875,0.62109375,4.234375,8.25,2.453125,0.080078125,-0.56640625,0.78125
221,2170239,2470239,0.164611816,-0.591064453,-0.56237793,0.554382324,0.41015625,1.35546875,0.4453125,4.4140625,8.1796875,2.3984375,0.080078125,-0.56640625,0.78125
222,2181161,2481161,0.16192627,-0.593078613,-0.56060791,0.554748535,0.41015625,1.35546875,0.4453125,4.4140625,8.1796875,2.3984375,0.138671875,-0.36328125,0.56640625
223,2187611,2487611,0.16003418,-0.594726562,-0.559082031,0.555114746,0.54296875,1.45703125,0.625,4.546875,8.1171875,2.3359375,0.138671875,-0.36328125,0.56640625
224,2199892,2499892,0.158630371,-0.596069336,-0.557739258,0.555358887,0.54296875,1.45703125,0.625,4.546875,8.1171875,2.3359375,0.142578125,-0.181640625,0.326171875
225,2209934,2509934,0.157775879,-0.597045898,-0.55670166,0.555603027,0.13671875,1.75390625,0.75390625,4.6484375,8.0859375,2.28125,0.142578125,-0.181640625,0.326171875
226,2219705,2519705,0.157287598,-0.59753418,-0.556152344,0.555786133,0.13671875,1.75390625,0.75390625,4.6484375,8.0859375,2.28125,0.0390625,-0.029296875,0.10546875
227,2227563,2527563,0.157226562,-0.59765625,-0.555847168,0.555908203,0.13671875,1.80859375,0.6640625,4.6875,8.0703125,2.2578125,0.0390625,-0.029296875,0.10546875
228,2241335,2541335,0.157653809,-0.59765625,-0.555786133,0.555969238,0.13671875,1.80859375,0.6640625,4.6875,8.0703125,2.2578125,0.056640625,0.08203125,-0.080078125
229,2248504,2548504,0.158508301,-0.597351074,-0.555847168,0.555908203,0.09765625,1.53125,0.28125,4.6875,8.078125,2.2578125,0.056640625,0.08203125,-0.080078125
230,2259951,2559951,0.159667969,-0.596801758,-0.556213379,0.555786133,0.09765625,1.53125,0.28125,4.6875,8.078125,2.2578125,0.009765625,0.19921875,-0.240234375
231,2267835,2567835,0.161071777,-0.596008301,-0.55682373,0.555664062,0.08203125,1.82421875,0.43359375,4.6640625,8.09375,2.2578125,0.009765625,0.19921875,-0.240234375
232,2281795,2581795,0.162963867,-0.594848633,-0.557739258,0.555419922,0.08203125,1.82421875,0.43359375,4.6640625,8.09375,2.2578125,-0.056640625,0.291015625,-0.427734375
233,2291613,2591613,0.164978027,-0.593322754,-0.559082031,0.555114746,-0.046875,2.3203125,0.74609375,4.6015625,8.1328125,2.2890625,-0.056640625,0.291015625,-0.427734375
234,2302910,2602910,0.167175293,-0.591369629,-0.560974121,0.5546875,-0.046875,2.3203125,0.74609375,4.6015625,8.1328125,2.2890625,-0.2265625,0.376953125,-0.63671875
235,2309575,2609575,0.169677734,-0.588928223,-0.563354492,0.554077148,-0.05859375,2.58203125,0.8828125,4.5,8.1796875,2.34375,-0.2265625,0.376953125,-0.63671875
236,2322218,2622218,0.172668457,-0.5859375,-0.56628418,0.553344727,-0.05859375,2.58203125,0.8828125,4.5,8.1796875,2.34375,-0.36328125,0.515625,-0.939453125
237,2331595,2631595,0.176208496,-0.582275391,-0.569824219,0.552429199,0.30859375,2.9453125,1.2890625,4.359375,8.234375,2.4375,-0.36328125,0.515625,-0.939453125
238,2343812,2643812,0.180419922,-0.578125,-0.573791504,0.551391602,0.30859375,2.9453125,1.2890625,4.359375,8.234375,2.4375,-0.4453125,0.763671875,-1.30859375
239,2348092,2648092,0.185546875,-0.573364258,-0.578063965,0.550170898,0.7890625,3.12890625,1.77734375,4.1484375,8.3203125,2.5625,-0.4453125,0.763671875,-1.30859375
240,2362472,2662472,0.192077637,-0.567443848,-0.583190918,0.54864502,0.7890625,3.12890625,1.77734375,4.1484375,8.3203125,2.5625,-0.51171875,1.0703125,-1.75585938
241,2370217,2670217,0.199279785,-0.560852051,-0.588684082,0.54699707,1.4375,3.2578125,2.1171875,3.84375,8.421875,2.71875,-0.51171875,1.0703125,-1.75585938
242,2383331,2683331,0.207580566,-0.553222656,-0.594726562,0.545166016,1.4375,3.2578125,2.1171875,3.84375,8.421875,2.71875,-0.61328125,1.48046875,-2.22070312
243,2390745,2690745,0.21661377,-0.544799805,-0.600891113,0.543334961,2.296875,3.015625,2.34375,3.4453125,8.546875,2.9140625,-0.61328125,1.48046875,-2.22070312
244,2402044,2702044,0.227172852,-0.534790039,-0.607666016,0.541442871,2.296875,3.015625,2.34375,3.4453125,8.546875,2.9140625,-0.7109375,1.86914062,-2.51757812
245,2410221,2710221,0.237915039,-0.524291992,-0.614318848,0.539550781,2.8515625,2.77734375,2.76953125,2.9296875,8.671875,3.140625,-0.7109375,1.86914062,-2.51757812
246,2423756,2723756,0.248901367,-0.513061523,-0.62097168,0.537780762,2.8515625,2.77734375,2.76953125,2.9296875,8.671875,3.140625,-0.865234375,2.12109375,-2.68359375
247,2428038,2728038,0.259643555,-0.501464844,-0.627563477,0.536010742,3.6953125,2.5703125,2.7109375,2.3515625,8.765625,3.390625,-0.865234375,2.12109375,-2.68359375
248,2442840,2742840,0.271240234,-0.48828125,-0.63458252,0.534118652,3.6953125,2.5703125,2.7109375,2.3515625,8.765625,3.390625,-1.06054688,2.33007812,-2.84179688
249,2450517,2750517,0.283081055,-0.473754883,-0.642028809,0.532165527,4.328125,1.44140625,2.17578125,1.71875,8.8203125,3.65625,-1.06054688,2.33007812,-2.84179688
250,2461189,2761189,0.294555664,-0.458679199,-0.649353027,0.530273438,4.328125,1.44140625,2.17578125,1.71875,8.8203125,3.65625,-1.390625,2.52539062,-2.98828125
251,2470159,2770159,0.305358887,-0.44317627,-0.656494141,0.528503418,4.57421875,1.40234375,2.078125,1.015625,8.8203125,3.9453125,-1.390625,2.52539062,-2.98828125
252,2481030,2781030,0.315917969,-0.427001953,-0.663574219,0.526855469,4.57421875,1.40234375,2.078125,1.015625,8.8203125,3.9453125,-1.5859375,2.546875,-2.87695312
253,2489215,2789215,0.326171875,-0.410583496,-0.670227051,0.52520752,3.1328125,0.59375,1.66015625,0.3125,8.75,4.25,-1.5859375,2.546875,-2.87695312
254,2501654,2801654,0.336547852,-0.393554688,-0.676574707,0.523498535,3.1328125,0.59375,1.66015625,0.3125,8.75,4.25,-1.55664062,2.56640625,-2.75195312
255,2510791,2810791,0.346801758,-0.376586914,-0.682373047,0.521789551,2.625,1.0703125,1.109375,-0.40625,8.6171875,4.53125,-1.55664062,2.56640625,-2.75195312
256,2525158,2825158,0.356201172,-0.361206055,-0.687133789,0.520080566,2.625,1.0703125,1.109375,-0.40625,8.6171875,4.53125,-1.33398438,2.55273438,-2.56835938
257,2531227,2831227,0.366333008,-0.345581055,-0.691345215,0.518066406,1.84765625,0.54296875,0.39453125,-1.0859375,8.453125,4.75,-1.33398438,2.55273438,-2.56835938
258,2543841,2843841,0.377075195,-0.329589844,-0.6953125,0.515441895,1.84765625,0.54296875,0.39453125,-1.0859375,8.453125,4.75,-1.09765625,2.59765625,-2.6328125
259,2548914,2848914,0.387207031,-0.314575195,-0.698791504,0.512634277,1.8828125,1.4921875,0.59765625,-1.7734375,8.2734375,4.890625,-1.09765625,2.59765625,-2.6328125
260,2563340,2863340,0.397827148,-0.298217773,-0.702331543,0.509460449,1.8828125,1.4921875,0.59765625,-1.7734375,8.2734375,4.890625,-1.15039062,2.63671875,-2.68164062
261,2571304,2871304,0.40802002,-0.282287598,-0.705444336,0.506225586,1.66015625,1.89453125,0.78125,-2.46875,8.0625,4.9765625,-1.15039062,2.63671875,-2.68164062
262,2584127,2884127,0.418395996,-0.266052246,-0.708129883,0.502624512,1.66015625,1.89453125,0.78125,-2.46875,8.0625,4.9765625,-1.03515625,2.68945312,-2.671875
263,2588497,2888497,0.428955078,-0.250671387,-0.710205078,0.498779297,1.87890625,1.4921875,0.05078125,-3.1484375,7.8125,5.015625,-1.03515625,2.68945312,-2.671875
264,2604479,2904479,0.440673828,-0.235046387,-0.711547852,0.49420166,1.87890625,1.4921875,0.05078125,-3.1484375,7.8125,5.015625,-0.556640625,2.78320312,-2.55859375
265,2610619,2910619,0.452026367,-0.221679688,-0.711914062,0.489562988,1.34375,-0.08984375,-1.7265625,-3.8359375,7.5546875,4.953125,-0.556640625,2.78320312,-2.55859375
266,2621912,2921912,0.464782715,-0.208618164,-0.711364746,0.484191895,1.34375,-0.08984375,-1.7265625,-3.8359375,7.5546875,4.953125,0.052734375,2.8359375,-2.34960938
267,2629085,2929085,0.477966309,-0.196533203,-0.710021973,0.478271484,1.046875,-0.59765625,-1.8125,-4.4609375,7.3359375,4.7734375,0.052734375,2.8359375,-2.34960938
268,2643518,2943518,0.490844727,-0.185302734,-0.708374023,0.472229004,1.046875,-0.59765625,-1.8125,-4.4609375,7.3359375,4.7734375,0.322265625,2.81054688,-2.27734375
269,2650220,2950220,0.502685547,-0.174804688,-0.706665039,0.466247559,0.890625,-0.83203125,-1.32421875,-5.0703125,7.1484375,4.4765625,0.322265625,2.81054688,-2.27734375
270,2663772,2963772,0.514648438,-0.163391113,-0.70501709,0.459777832,0.890625,-0.83203125,-1.32421875,-5.0703125,7.1484375,4.4765625,0.138671875,2.60546875,-2.28515625
271,2668064,2968064,0.52532959,-0.151977539,-0.703613281,0.453735352,0.9765625,-0.46875,-0.66796875,-5.6171875,6.9375,4.1640625,0.138671875,2.60546875,-2.28515625
272,2683434,2983434,0.535400391,-0.139831543,-0.702331543,0.447753906,0.9765625,-0.46875,-0.66796875,-5.6171875,6.9375,4.1640625,-0.212890625,2.35742188,-2.23828125
273,2690189,2990189,0.544494629,-0.127563477,-0.70123291,0.442199707,1.30078125,-0.59375,-0.9609375,-6.1328125,6.6796875,3.8828125,-0.212890625,2.35742188,-2.23828125
274,2703715,3003715,0.55267334,-0.115844727,-0.700073242,0.437072754,1.30078125,-0.59375,-0.9609375,-6.1328125,6.6796875,3.8828125,-0.33203125,2.16992188,-2.09179688
275,2708776,3008776,0.560424805,-0.104736328,-0.698730469,0.432067871,1.75390625,-1.29296875,-1.33203125,-6.5859375,6.3828125,3.640625,-0.33203125,2.16992188,-2.09179688
276,2723197,3023197,0.56829834,-0.0936889648,-0.69720459,0.426757812,1.75390625,-1.29296875,-1.33203125,-6.5859375,6.3828125,3.640625,-0.19140625,2.05273438,-1.9375
277,2731870,3031870,0.575866699,-0.0835571289,-0.695495605,0.421508789,1.76171875,-1.69921875,-1.390625,-6.9765625,6.1015625,3.390625,-0.19140625,2.05273438,-1.9375
278,2743529,3043529,0.583557129,-0.0734863281,-0.693603516,0.41595459,1.76171875,-1.69921875,-1.390625,-6.9765625,6.1015625,3.390625,-0.05078125,2.01953125,-1.8671875
279,2749144,3049144,0.591125488,-0.0631713867,-0.691589355,0.410217285,1.6328125,-1.3984375,-0.96875,-7.34375,5.8359375,3.125,-0.05078125,2.01953125,-1.8671875
280,2764754,3064754,0.59777832,-0.0532226562,-0.689758301,0.405090332,1.6328125,-1.3984375,-0.96875,-7.34375,5.8359375,3.125,-0.2578125,1.88476562,-1.84765625
281,2770933,3070933,0.60369873,-0.0433349609,-0.688049316,0.40032959,1.80859375,-0.953125,-0.62109375,-7.671875,5.546875,2.8515625,-0.2578125,1.88476562,-1.84765625
282,2783530,3083530,0.60925293,-0.0330810547,-0.686340332,0.395812988,1.80859375,-0.953125,-0.62109375,-7.671875,5.546875,2.8515625,-0.4140625,1.69726562,-1.70703125
283,2788583,3088583,0.614501953,-0.0230712891,-0.684509277,0.391540527,1.75,-1.890625,-1.98828125,-7.9609375,5.2578125,2.609375,-0.4140625,1.69726562,-1.70703125
284,2802013,3102013,0.61932373,-0.0137329102,-0.682678223,0.387573242,1.75,-1.890625,-1.98828125,-7.9609375,5.2578125,2.609375,-0.3828125,1.59960938,-1.55078125
285,2811229,3111229,0.623962402,-0.00518798828,-0.680786133,0.383728027,1.6171875,-2.5234375,-2.07421875,-8.2109375,4.96875,2.390625,-0.3828125,1.59960938,-1.55078125
286,2824223,3124223,0.62878418,0.00305175781,-0.678649902,0.379577637,1.6171875,-2.5234375,-2.07421875,-8.2109375,4.96875,2.390625,-0.1875,1.48046875,-1.359375
287,2828533,3128533,0.633239746,0.0104370117,-0.676635742,0.375671387,1.29296875,-3.08203125,-1.76171875,-8.421875,4.7265625,2.15625,-0.1875,1.48046875,-1.359375
288,2845624,3145624,0.637573242,0.0178222656,-0.674560547,0.371704102,1.29296875,-3.08203125,-1.76171875,-8.421875,4.7265625,2.15625,-0.18359375,1.359375,-1.25585938
289,2852628,3152628,0.641235352,0.0246582031,-0.672668457,0.368408203,1.16015625,-2.4296875,-1.27734375,-8.59375,4.4921875,1.9375,-0.18359375,1.359375,-1.25585938
290,2863969,3163969,0.644470215,0.0317993164,-0.670837402,0.365539551,1.16015625,-2.4296875,-1.27734375,-8.59375,4.4921875,1.9375,-0.392578125,1.11132812,-1.05859375
291,2867708,3167708,0.646972656,0.0380859375,-0.669250488,0.36340332,1.19140625,-1.75,-1.73046875,-8.7421875,4.2734375,1.7421875,-0.392578125,1.11132812,-1.05859375
292,2884621,3184621,0.649475098,0.0444335938,-0.667602539,0.36126709,1.19140625,-1.75,-1.73046875,-8.7421875,4.2734375,1.7421875,-0.357421875,1,-0.90625
293,2890609,3190609,0.652038574,0.0498657227,-0.665893555,0.359130859,1.4609375,-2.03125,-2.00390625,-8.859375,4.09375,1.59375,-0.357421875,1,-0.90625
294,2904033,3204033,0.654968262,0.0547485352,-0.66394043,0.356567383,1.4609375,-2.03125,-2.00390625,-8.859375,4.09375,1.59375,-0.033203125,1,-0.751953125
295,2907788,3207788,0.65802002,0.0586547852,-0.66204834,0.354003906,1.171875,-1.91015625,-1.6875,-8.953125,3.9375,1.4296875,-0.033203125,1,-0.751953125
296,2922743,3222743,0.661132812,0.0624389648,-0.66003418,0.351257324,1.171875,-1.91015625,-1.6875,-8.953125,3.9375,1.4296875,0.07421875,0.94140625,-0.642578125
297,2934066,3234066,0.664001465,0.0659179688,-0.658081055,0.348754883,0.5234375,-1.48046875,-1.171875,-9.03125,3.8125,1.2578125,0.07421875,0.94140625,-0.642578125
298,2941832,3241832,0.666381836,0.0692138672,-0.656433105,0.346679688,0.5234375,-1.48046875,-1.171875,-9.03125,3.8125,1.2578125,-0.05078125,0.7890625,-0.578125
299,2951279,3251279,0.668579102,0.0726318359,-0.654846191,0.344787598,0.5078125,-1.0625,-1.390625,-9.09375,3.703125,1.09375,-0.05078125,0.7890625,-0.578125
300,2962756,3262756,0.670654297,0.0758056641,-0.653381348,0.342956543,0.5078125,-1.0625,-1.390625,-9.09375,3.703125,1.09375,-0.0234375,0.689453125,-0.517578125
301,2972961,3272961,0.672607422,0.0786743164,-0.651977539,0.341003418,0.36328125,-1.34765625,-1.45703125,-9.140625,3.6015625,0.96875,-0.0234375,0.689453125,-0.517578125
302,2983371,3283371,0.674438477,0.0809326172,-0.650817871,0.339172363,0.36328125,-1.34765625,-1.45703125,-9.140625,3.6015625,0.96875,0.076171875,0.548828125,-0.416015625
303,2988176,3288176,0.676086426,0.0827026367,-0.649841309,0.337402344,0.6015625,-1.56640625,-2.01953125,-9.1875,3.515625,0.84375,0.076171875,0.548828125,-0.416015625
304,3002802,3302802,0.67767334,0.0839233398,-0.648925781,0.335632324,0.6015625,-1.56640625,-2.01953125,-9.1875,3.515625,0.84375,0.236328125,0.431640625,-0.271484375
305,3012455,3312455,0.679260254,0.0845336914,-0.648071289,0.33380127,0.7890625,-1.80078125,-2.109375,-9.21875,3.4453125,0.7421875,0.236328125,0.431640625,-0.271484375
306,3023267,3323267,0.680664062,0.084777832,-0.647399902,0.332275391,0.7890625,-1.80078125,-2.109375,-9.21875,3.4453125,0.7421875,0.25,0.26953125,-0.138671875
307,3029941,3329941,0.68157959,0.084777832,-0.646972656,0.331176758,0.83203125,-1.734375,-1.98828125,-9.2265625,3.4140625,0.65625,0.25,0.26953125,-0.138671875
308,3044049,3344049,0.682006836,0.0845336914,-0.646789551,0.330749512,0.83203125,-1.734375,-1.98828125,-9.2265625,3.4140625,0.65625,0.0703125,0.001953125,0.02734375
309,3050490,3350490,0.681884766,0.083984375,-0.646972656,0.330871582,0.91796875,-2.0625,-2.33203125,-9.234375,3.3984375,0.6171875,0.0703125,0.001953125,0.02734375
310,3063435,3363435,0.681213379,0.0829467773,-0.647399902,0.331542969,0.91796875,-2.0625,-2.33203125,-9.234375,3.3984375,0.6171875,-0.005859375,-0.287109375,0.248046875
311,3070039,3370039,0.680114746,0.0811157227,-0.648132324,0.332763672,1.20703125,-2.73828125,-2.99609375,-9.21875,3.421875,0.6328125,-0.005859375,-0.287109375,0.248046875
312,3083901,3383901,0.678771973,0.0786132812,-0.649108887,0.334289551,1.20703125,-2.73828125,-2.99609375,-9.21875,3.421875,0.6328125,0.080078125,-0.568359375,0.525390625
313,3094308,3394308,0.677185059,0.0752563477,-0.650268555,0.335998535,1.4296875,-2.953125,-3.4140625,-9.171875,3.484375,0.703125,0.080078125,-0.568359375,0.525390625
314,3104495,3404495,0.675292969,0.0706787109,-0.651733398,0.338012695,1.4296875,-2.953125,-3.4140625,-9.171875,3.484375,0.703125,0.271484375,-0.837890625,0.8203125
315,3108244,3408244,0.673156738,0.0650024414,-0.653381348,0.340209961,1.68359375,-3.3359375,-3.7890625,-9.1171875,3.6015625,0.8125,0.271484375,-0.837890625,0.8203125
316,3122819,3422819,0.670776367,0.0579833984,-0.655273438,0.342590332,1.68359375,-3.3359375,-3.7890625,-9.1171875,3.6015625,0.8125,0.509765625,-1.109375,1.1484375
317,3133730,3433730,0.668151855,0.049987793,-0.657226562,0.345214844,1.81640625,-3.86328125,-4.390625,-9.0234375,3.78125,0.953125,0.509765625,-1.109375,1.1484375
318,3144121,3444121,0.665283203,0.0416870117,-0.659240723,0.347961426,1.81640625,-3.86328125,-4.390625,-9.0234375,3.78125,0.953125,0.568359375,-1.37109375,1.41796875
319,3147870,3447870,0.661499023,0.0324707031,-0.661743164,0.35144043,1.37890625,-3.0625,-2.45703125,-8.890625,4.015625,1.125,0.568359375,-1.37109375,1.41796875
320,3163736,3463736,0.656555176,0.0228881836,-0.664733887,0.355773926,1.37890625,-3.0625,-2.45703125,-8.890625,4.015625,1.125,0.263671875,-1.82226562,1.6171875
321,3171347,3471347,0.65045166,0.0133056641,-0.66809082,0.361022949,0.78515625,-2.26171875,-1.92578125,-8.71875,4.2890625,1.359375,0.263671875,-1.82226562,1.6171875
322,3183947,3483947,0.643615723,0.00390625,-0.67175293,0.366760254,0.78515625,-2.26171875,-1.92578125,-8.71875,4.2890625,1.359375,-0.02734375,-2.21289062,1.796875
323,3190896,3490896,0.635803223,-0.00659179688,-0.675598145,0.373168945,1.2578125,-2.23828125,-2.60546875,-8.5,4.5703125,1.6953125,-0.02734375,-2.21289062,1.796875
324,3203067,3503067,0.628601074,-0.0172729492,-0.678955078,0.378845215,1.2578125,-2.23828125,-2.60546875,-8.5,4.5703125,1.6953125,0.287109375,-2.2421875,1.98828125
325,3210464,3510464,0.621948242,-0.0288085938,-0.681884766,0.383911133,1.56640625,-3.125,-3.53125,-8.234375,4.8828125,2.046875,0.287109375,-2.2421875,1.98828125
326,3222607,3522607,0.61529541,-0.0424804688,-0.684509277,0.388671875,1.56640625,-3.125,-3.53125,-8.234375,4.8828125,2.046875,0.85546875,-2.16015625,2.18945312
327,3231094,3531094,0.608886719,-0.0568237305,-0.686584473,0.393188477,1.94140625,-2.7734375,-2.81640625,-7.921875,5.21875,2.328125,0.85546875,-2.16015625,2.18945312
328,3243992,3543992,0.602233887,-0.0709228516,-0.688354492,0.398010254,1.94140625,-2.7734375,-2.81640625,-7.921875,5.21875,2.328125,0.712890625,-2.21679688,2.34960938
329,3254730,3554730,0.594604492,-0.0849609375,-0.690063477,0.403747559,1.3515625,-0.48046875,0.390625,-7.5625,5.609375,2.5703125,0.712890625,-2.21679688,2.34960938
330,3263410,3563410,0.586486816,-0.0973510742,-0.691711426,0.41003418,1.3515625,-0.48046875,0.390625,-7.5625,5.609375,2.5703125,0.126953125,-2.47265625,2.60742188
331,3270732,3570732,0.575622559,-0.111206055,-0.693786621,0.418273926,0.3046875,-0.578125,0.046875,-7.1640625,5.9765625,2.8359375,0.126953125,-2.47265625,2.60742188
332,3282904,3582904,0.564819336,-0.124755859,-0.695739746,0.42590332,0.3046875,-0.578125,0.046875,-7.1640625,5.9765625,2.8359375,0.166015625,-2.671875,2.69335938
333,3291465,3591465,0.555725098,-0.138305664,-0.696838379,0.43182373,1.94921875,-2.5546875,-2.52734375,-6.6640625,6.34375,3.1875,0.166015625,-2.671875,2.69335938
334,3304256,3604256,0.548034668,-0.153625488,-0.696838379,0.436462402,1.94921875,-2.5546875,-2.52734375,-6.6640625,6.34375,3.1875,1.171875,-2.046875,2.43359375
335,3308546,3608546,0.542419434,-0.168762207,-0.695739746,0.43963623,3.44921875,-2.1484375,-2.9609375,-6.171875,6.703125,3.390625,1.171875,-2.046875,2.43359375
336,3323761,3623761,0.537109375,-0.184936523,-0.693786621,0.442626953,3.44921875,-2.1484375,-2.9609375,-6.171875,6.703125,3.390625,1.47851562,-1.76953125,2.484375
337,3329221,3629221,0.53112793,-0.200317383,-0.691894531,0.446105957,1.80078125,0.42578125,0.28125,-5.7109375,7.078125,3.40625,1.47851562,-1.76953125,2.484375
338,3344263,3644263,0.523254395,-0.214294434,-0.690734863,0.450744629,1.80078125,0.42578125,0.28125,-5.7109375,7.078125,3.40625,0.478515625,-2.17773438,2.60742188
339,3348017,3648017,0.513244629,-0.22668457,-0.690429688,0.456542969,0.91015625,3.3828125,3.13671875,-5.203125,7.4140625,3.4609375,0.478515625,-2.17773438,2.60742188
340,3363755,3663755,0.500427246,-0.239685059,-0.690734863,0.463623047,0.91015625,3.3828125,3.13671875,-5.203125,7.4140625,3.4609375,-0.171875,-2.74804688,2.83203125
341,3370209,3670209,0.487609863,-0.252502441,-0.691223145,0.469726562,0.3984375,0.17578125,1.30078125,-4.6171875,7.671875,3.6875,-0.171875,-2.74804688,2.83203125
342,3383605,3683605,0.475097656,-0.266540527,-0.691162109,0.474914551,0.3984375,0.17578125,1.30078125,-4.6171875,7.671875,3.6875,0.431640625,-2.53320312,2.54492188
343,3390543,3690543,0.465148926,-0.280273438,-0.689880371,0.47869873,3.22265625,-0.2421875,-1.703125,-3.9921875,7.8984375,3.8984375,0.431640625,-2.53320312,2.54492188
344,3404780,3704780,0.458007812,-0.293701172,-0.687316895,0.481140137,3.22265625,-0.2421875,-1.703125,-3.9921875,7.8984375,3.8984375,1.31640625,-1.74609375,2.18359375
345,3410607,3710607,0.452758789,-0.306518555,-0.684143066,0.482666016,2.71484375,0.17578125,-0.72265625,-3.4453125,8.1328125,3.9140625,1.31640625,-1.74609375,2.18359375
346,3426293,3726293,0.446838379,-0.319580078,-0.680786133,0.48449707,2.71484375,0.17578125,-0.72265625,-3.4453125,8.1328125,3.9140625,0.99609375,-1.63671875,2.06640625
347,3431183,3731183,0.439331055,-0.330444336,-0.678588867,0.487121582,1.78515625,3.359375,2.83984375,-2.9765625,8.359375,3.796875,0.99609375,-1.63671875,2.06640625
348,3443356,3743356,0.428466797,-0.340637207,-0.67779541,0.490905762,1.78515625,3.359375,2.83984375,-2.9765625,8.359375,3.796875,-0.287109375,-2.22070312,2.1484375
349,3449220,3749220,0.415527344,-0.349182129,-0.678283691,0.495300293,0.55859375,3.72265625,3.56640625,-2.4765625,8.4921875,3.8359375,-0.287109375,-2.22070312,2.1484375
350,3464674,3764674,0.401062012,-0.357727051,-0.679138184,0.5,0.55859375,3.72265625,3.56640625,-2.4765625,8.4921875,3.8359375,-0.69921875,-2.56054688,2.28710938
351,3468964,3768964,0.388366699,-0.366333008,-0.679077148,0.50378418,2.046875,0.7265625,-0.4296875,-1.8984375,8.5390625,4.0390625,-0.69921875,-2.56054688,2.28710938
352,3489197,3789197,0.377563477,-0.37701416,-0.677307129,0.506591797,2.046875,0.7265625,-0.4296875,-1.8984375,8.5390625,4.0390625,0.697265625,-1.91601562,2.02539062
353,3493714,3793714,0.370910645,-0.389038086,-0.673278809,0.507751465,3.29296875,-2.58203125,-2.5078125,-1.34375,8.59375,4.125,0.697265625,-1.91601562,2.02539062
354,3503548,3803548,0.367004395,-0.402587891,-0.667297363,0.50793457,3.29296875,-2.58203125,-2.5078125,-1.34375,8.59375,4.125,2.08398438,-1.33398438,1.95898438
355,3509544,3809544,0.363647461,-0.415893555,-0.660644531,0.508300781,2.94140625,-0.328125,-0.81640625,-0.875,8.75,3.890625,2.08398438,-1.33398438,1.95898438
356,3523023,3823023,0.358642578,-0.427246094,-0.655029297,0.509643555,2.94140625,-0.328125,-0.81640625,-0.875,8.75,3.890625,0.958984375,-1.390625,2.03320312
357,3530464,3830464,0.350219727,-0.436462402,-0.651550293,0.512207031,1.71875,5.5,4.63671875,-0.421875,8.8984375,3.609375,0.958984375,-1.390625,2.03320312
358,3542789,3842789,0.338317871,-0.44329834,-0.650512695,0.515563965,1.71875,5.5,4.63671875,-0.421875,8.8984375,3.609375,-0.923828125,-2.03125,2.0859375
359,3551902,3851902,0.324157715,-0.448913574,-0.650878906,0.519348145,1.53515625,4.58203125,3.59375,0.0703125,8.8984375,3.6171875,-0.923828125,-2.03125,2.0859375
360,3565235,3865235,0.31048584,-0.454772949,-0.650878906,0.522583008,1.53515625,4.58203125,3.59375,0.0703125,8.8984375,3.6171875,-0.6484375,-2.07421875,2.02734375
361,3572601,3872601,0.299377441,-0.461669922,-0.649353027,0.524902344,2.6953125,-0.703125,-1.3046875,0.59375,8.8203125,3.765625,-0.6484375,-2.07421875,2.02734375
362,3584213,3884213,0.29095459,-0.470458984,-0.645507812,0.526611328,2.6953125,-0.703125,-1.3046875,0.59375,8.8203125,3.765625,0.892578125,-1.40820312,1.83203125
363,3591033,3891033,0.285644531,-0.480407715,-0.639709473,0.527709961,2.7578125,-1.015625,-1.2578125,1.0703125,8.7890625,3.71875,0.892578125,-1.40820312,1.83203125
364,3603212,3903212,0.282043457,-0.489807129,-0.633361816,0.528625488,2.7578125,-1.015625,-1.2578125,1.0703125,8.7890625,3.71875,1.40625,-0.9375,1.68359375
365,3609232,3909232,0.278198242,-0.498168945,-0.627441406,0.529785156,1.984375,2.96484375,2.75390625,1.4609375,8.828125,3.4609375,1.40625,-0.9375,1.68359375
366,3622776,3922776,0.272521973,-0.50567627,-0.622497559,0.531494141,1.984375,2.96484375,2.75390625,1.4609375,8.828125,3.4609375,0.451171875,-1.10546875,1.7265625
367,3629321,3929321,0.265258789,-0.51184082,-0.618713379,0.533691406,1.5703125,3.6484375,3.33984375,1.8359375,8.8359375,3.2578125,0.451171875,-1.10546875,1.7265625
368,3648304,3948304,0.257568359,-0.517333984,-0.61541748,0.535949707,1.5703125,3.6484375,3.33984375,1.8359375,8.8359375,3.2578125,0.060546875,-1.0859375,1.66796875
369,3652432,3952432,0.250610352,-0.522644043,-0.611999512,0.538024902,1.42578125,1.328125,1.3125,2.2109375,8.78125,3.1796875,0.060546875,-1.0859375,1.66796875
370,3663615,3963615,0.244567871,-0.528442383,-0.607727051,0.539978027,1.42578125,1.328125,1.3125,2.2109375,8.78125,3.1796875,0.556640625,-0.87890625,1.59570312
371,3669616,3969616,0.239929199,-0.534667969,-0.602600098,0.541687012,1.41796875,0.73828125,0.640625,2.5625,8.71875,3.0859375,0.556640625,-0.87890625,1.59570312
372,3683872,3983872,0.23651123,-0.541259766,-0.596740723,0.54309082,1.41796875,0.73828125,0.640625,2.5625,8.71875,3.0859375,1.0234375,-0.611328125,1.40429688
373,3690951,3990951,0.234008789,-0.547180176,-0.591186523,0.544372559,0.98046875,1.4609375,1.1796875,2.8828125,8.6875,2.890625,1.0234375,-0.611328125,1.40429688
374,3703196,4003196,0.231689453,-0.55279541,-0.58581543,0.545532227,0.98046875,1.4609375,1.1796875,2.8828125,8.6875,2.890625,0.90625,-0.4765625,1.1953125
375,3709734,4009734,0.229431152,-0.557800293,-0.580932617,0.546569824,0.6171875,1.40625,1.3671875,3.1328125,8.6640625,2.703125,0.90625,-0.4765625,1.1953125
376,3723188,4023188,0.227111816,-0.562011719,-0.576843262,0.547546387,0.6171875,1.40625,1.3671875,3.1328125,8.6640625,2.703125,0.59375,-0.44921875,1.02539062
377,3730881,4030881,0.224304199,-0.566040039,-0.572998047,0.54864502,0.58984375,1.24609375,0.8359375,3.3515625,8.6328125,2.546875,0.59375,-0.44921875,1.02539062
378,3743355,4043355,0.221374512,-0.569274902,-0.569946289,0.549682617,0.58984375,1.24609375,0.8359375,3.3515625,8.6328125,2.546875,0.27734375,-0.44921875,0.91796875
379,3749368,4049368,0.218200684,-0.57208252,-0.567260742,0.550720215,0.38671875,1.0625,0.71484375,3.5546875,8.5859375,2.4375,0.27734375,-0.44921875,0.91796875
380,3762849,4062849,0.21496582,-0.574584961,-0.565002441,0.551757812,0.38671875,1.0625,0.71484375,3.5546875,8.5859375,2.4375,0.107421875,-0.416015625,0.8671875
381,3769226,4069226,0.211730957,-0.576904297,-0.562805176,0.55279541,0.20703125,0.58203125,0.4609375,3.734375,8.53125,2.3828125,0.107421875,-0.416015625,0.8671875
382,3782754,4082754,0.208618164,-0.579162598,-0.560668945,0.553833008,0.20703125,0.58203125,0.4609375,3.734375,8.53125,2.3828125,0.119140625,-0.349609375,0.78515625
383,3789408,4089408,0.205932617,-0.581115723,-0.55847168,0.554992676,0.47265625,0.67578125,-0.140625,3.890625,8.4765625,2.3359375,0.119140625,-0.349609375,0.78515625
384,3808375,4108375,0.204040527,-0.582824707,-0.556335449,0.556091309,0.47265625,0.67578125,-0.140625,3.890625,8.4765625,2.3359375,0.212890625,-0.134765625,0.599609375
385,3812231,4112231,0.202819824,-0.584289551,-0.554260254,0.557006836,0.0625,0.95703125,0.2890625,4.03125,8.421875,2.2890625,0.212890625,-0.134765625,0.599609375
386,3824331,4124331,0.202087402,-0.585449219,-0.55267334,0.557678223,0.0625,0.95703125,0.2890625,4.03125,8.421875,2.2890625,0.19140625,-0.041015625,0.322265625
387,3829949,4129949,0.201721191,-0.586181641,-0.551452637,0.558227539,-0.08984375,1.77734375,0.296875,4.109375,8.40625,2.2421875,0.19140625,-0.041015625,0.322265625
388,3847012,4147012,0.201599121,-0.586425781,-0.55078125,0.558654785,-0.08984375,1.77734375,0.296875,4.109375,8.40625,2.2421875,0.033203125,0.048828125,0.087890625
389,3851177,4151177,0.201599121,-0.586303711,-0.55065918,0.558898926,-0.13671875,1.87109375,0.6171875,4.15625,8.390625,2.2265625,0.033203125,0.048828125,0.087890625
390,3864951,4164951,0.201782227,-0.585693359,-0.551025391,0.559143066,-0.13671875,1.87109375,0.6171875,4.15625,8.390625,2.2265625,-0.1171875,0.09765625,-0.08984375
391,3868701,4168701,0.202026367,-0.584899902,-0.551635742,0.559265137,-0.0546875,1.7578125,0.41015625,4.1484375,8.390625,2.2421875,-0.1171875,0.09765625,-0.08984375
392,3886958,4186958,0.202514648,-0.583740234,-0.55255127,0.559387207,-0.0546875,1.7578125,0.41015625,4.1484375,8.390625,2.2421875,-0.208984375,0.1796875,-0.22265625
393,3891860,4191860,0.20324707,-0.582336426,-0.553771973,0.559448242,0.0859375,1.77734375,0.21875,4.125,8.40625,2.28125,-0.208984375,0.1796875,-0.22265625
394,3903173,4203173,0.204345703,-0.580505371,-0.555297852,0.559387207,0.0859375,1.77734375,0.21875,4.125,8.40625,2.28125,-0.279296875,0.275390625,-0.431640625
395,3909720,4209720,0.205871582,-0.57824707,-0.557250977,0.559204102,0.0703125,2.25390625,0.38671875,4.0625,8.4296875,2.34375,-0.279296875,0.275390625,-0.431640625
396,3927304,4227304,0.207763672,-0.575683594,-0.559570312,0.558837891,0.0703125,2.25390625,0.38671875,4.0625,8.4296875,2.34375,-0.33984375,0.396484375,-0.69140625
397,3931460,4231460,0.210144043,-0.572753906,-0.562194824,0.558349609,0.02734375,2.56640625,0.76171875,3.953125,8.4609375,2.4296875,-0.33984375,0.396484375,-0.69140625
398,3942412,4242412,0.213134766,-0.569152832,-0.565429688,0.557556152,0.02734375,2.56640625,0.76171875,3.953125,8.4609375,2.4296875,-0.435546875,0.533203125,-1
399,3949946,4249946,0.216491699,-0.565002441,-0.569274902,0.556640625,0.11328125,3.35546875,1.15625,3.7890625,8.515625,2.53125,-0.435546875,0.533203125,-1
400,3966321,4266321,0.220336914,-0.560058594,-0.573730469,0.555480957,0.11328125,3.35546875,1.15625,3.7890625,8.515625,2.53125,-0.64453125,0.7109375,-1.37109375
401,3970433,4270433,0.22442627,-0.554504395,-0.578796387,0.554260254,0.45703125,3.75390625,1.3984375,3.5625,8.578125,2.671875,-0.64453125,0.7109375,-1.37109375
402,3984131,4284131,0.229309082,-0.547607422,-0.584899902,0.55267334,0.45703125,3.75390625,1.3984375,3.5625,8.578125,2.671875,-0.912109375,0.92578125,-1.76757812
403,3989726,4289726,0.234741211,-0.539611816,-0.591674805,0.551025391,1.14453125,4.06640625,1.82421875,3.2578125,8.6484375,2.859375,-0.912109375,0.92578125,-1.76757812
404,4006583,4306583,0.240905762,-0.530700684,-0.598876953,0.549255371,1.14453125,4.06640625,1.82421875,3.2578125,8.6484375,2.859375,-1.09765625,1.25390625,-2.17578125
405,4010729,4310729,0.247558594,-0.52130127,-0.606079102,0.547363281,1.90234375,3.83984375,1.84375,2.84375,8.71875,3.109375,-1.09765625,1.25390625,-2.17578125
406,4024135,4324135,0.255554199,-0.510253906,-0.614135742,0.54510498,1.90234375,3.83984375,1.84375,2.84375,8.71875,3.109375,-1.1953125,1.59179688,-2.56640625
407,4029198,4329198,0.264038086,-0.498413086,-0.622375488,0.542724609,2.78515625,3.625,2.48046875,2.34375,8.78125,3.390625,-1.1953125,1.59179688,-2.56640625
408,4046218,4346218,0.272888184,-0.485778809,-0.630615234,0.540222168,2.78515625,3.625,2.48046875,2.34375,8.78125,3.390625,-1.31054688,1.83789062,-2.79492188
409,4050319,4350319,0.281982422,-0.473083496,-0.638427734,0.537658691,3.1171875,3.02734375,2.40625,1.7421875,8.8046875,3.6953125,-1.31054688,1.83789062,-2.79492188
410,4064077,4364077,0.292236328,-0.459289551,-0.646179199,0.534851074,3.1171875,3.02734375,2.40625,1.7421875,8.8046875,3.6953125,-1.13867188,2.109375,-2.88476562
411,4069688,4369688,0.303100586,-0.445495605,-0.653198242,0.531982422,3.4140625,2.3671875,2.1328125,1.1015625,8.8125,3.96875,-1.13867188,2.109375,-2.88476562
412,4086619,4386619,0.314086914,-0.43182373,-0.659423828,0.529174805,3.4140625,2.3671875,2.1328125,1.1015625,8.8125,3.96875,-0.98046875,2.33984375,-2.86523438
413,4091504,4391504,0.325256348,-0.418334961,-0.664978027,0.526367188,3.796875,2.0546875,1.515625,0.4140625,8.78125,4.203125,-0.98046875,2.33984375,-2.86523438
414,4103319,4403319,0.33782959,-0.403442383,-0.670471191,0.523071289,3.796875,2.0546875,1.515625,0.4140625,8.78125,4.203125,-0.837890625,2.5859375,-2.97851562
415,4109689,4409689,0.350585938,-0.388305664,-0.675537109,0.51953125,3.625,2.078125,1.7734375,-0.296875,8.71875,4.3671875,-0.837890625,2.5859375,-2.97851562
416,4127221,4427221,0.363220215,-0.37286377,-0.680358887,0.515869141,3.625,2.078125,1.7734375,-0.296875,8.71875,4.3671875,-0.90625,2.70898438,-3.07421875
417,4131354,4431354,0.375366211,-0.357543945,-0.684875488,0.512145996,3.39453125,2.3359375,1.953125,-1.0625,8.6171875,4.4921875,-0.90625,2.70898438,-3.07421875
418,4145550,4445550,0.388000488,-0.340820312,-0.68939209,0.507995605,3.39453125,2.3359375,1.953125,-1.0625,8.6171875,4.4921875,-0.984375,2.6953125,-3.0546875
419,4150413,4450413,0.399536133,-0.325195312,-0.693237305,0.504089355,2.55859375,1.80859375,1.78125,-1.8359375,8.453125,4.5859375,-0.984375,2.6953125,-3.0546875
420,4164982,4464982,0.411743164,-0.30859375,-0.696777344,0.499694824,2.55859375,1.80859375,1.78125,-1.8359375,8.453125,4.5859375,-0.90234375,2.73242188,-2.99414062
421,4173570,4473570,0.423400879,-0.29309082,-0.699645996,0.495361328,2.734375,1.3671875,1.078125,-2.5859375,8.2421875,4.640625,-0.90234375,2.73242188,-2.99414062
422,4184204,4484204,0.436401367,-0.276489258,-0.702026367,0.49017334,2.734375,1.3671875,1.078125,-2.5859375,8.2421875,4.640625,-0.623046875,2.87304688,-3.00390625
423,4189258,4489258,0.449279785,-0.260864258,-0.703674316,0.484741211,2.71875,0.64453125,0.76171875,-3.3359375,8.0078125,4.609375,-0.623046875,2.87304688,-3.00390625
424,4207212,4507212,0.462463379,-0.245483398,-0.704650879,0.478881836,2.71875,0.64453125,0.76171875,-3.3359375,8.0078125,4.609375,-0.337890625,2.9765625,-2.97070312
425,4211351,4511351,0.475585938,-0.230773926,-0.704956055,0.47277832,3.375,0.3515625,0.09375,-4.0703125,7.765625,4.4765625,-0.337890625,2.9765625,-2.97070312
426,4224202,4524202,0.489868164,-0.215454102,-0.704650879,0.465942383,3.375,0.3515625,0.09375,-4.0703125,7.765625,4.4765625,-0.068359375,3.09375,-2.95507812
427,4229796,4529796,0.50390625,-0.200805664,-0.703735352,0.45880127,3.29296875,0.2734375,-0.1015625,-4.7890625,7.5,4.25,-0.068359375,3.09375,-2.95507812
428,4247569,4547569,0.51763916,-0.186828613,-0.702270508,0.451538086,3.29296875,0.2734375,-0.1015625,-4.7890625,7.5,4.25,0.142578125,3.05273438,-2.81445312
429,4252024,4552024,0.531066895,-0.173461914,-0.700378418,0.444213867,3.359375,-0.359375,-0.78515625,-5.46875,7.2109375,3.9375,0.142578125,3.05273438,-2.81445312
430,4264139,4564139,0.544433594,-0.16003418,-0.698120117,0.436584473,3.359375,-0.359375,-0.78515625,-5.46875,7.2109375,3.9375,0.2109375,2.98632812,-2.70117188
431,4269190,4569190,0.557067871,-0.147216797,-0.695678711,0.428955078,2.44140625,-0.67578125,-1.1484375,-6.0859375,6.9140625,3.5703125,0.2109375,2.98632812,-2.70117188
432,4286994,4586994,0.569458008,-0.134399414,-0.693115234,0.421020508,2.44140625,-0.67578125,-1.1484375,-6.0859375,6.9140625,3.5703125,0.248046875,2.83007812,-2.64453125
433,4291115,4591115,0.580993652,-0.122436523,-0.690429688,0.413269043,2.15625,-1.6640625,-1.90625,-6.640625,6.6015625,3.1796875,0.248046875,2.83007812,-2.64453125
434,4304201,4604201,0.593444824,-0.110046387,-0.687072754,0.40447998,2.15625,-1.6640625,-1.90625,-6.640625,6.6015625,3.1796875,0.466796875,2.74023438,-2.48046875
435,4309807,4609807,0.604248047,-0.0999145508,-0.683837891,0.396606445,1.88671875,-2.6484375,-2.203125,-7.140625,6.28125,2.75,0.466796875,2.74023438,-2.48046875
436,4327000,4627000,0.615539551,-0.0894165039,-0.680175781,0.387939453,1.88671875,-2.6484375,-2.203125,-7.140625,6.28125,2.75,0.5703125,2.53710938,-2.29492188
437,4331134,4631134,0.625732422,-0.0794067383,-0.676696777,0.379821777,1.7265625,-2.1796875,-1.8828125,-7.5546875,5.96875,2.3125,0.5703125,2.53710938,-2.29492188
438,4344629,4644629,0.634887695,-0.0692138672,-0.673461914,0.372253418,1.7265625,-2.1796875,-1.8828125,-7.5546875,5.96875,2.3125,0.224609375,2.32617188,-2.2734375
439,4349685,4649685,0.644042969,-0.057434082,-0.67010498,0.364562988,1.62890625,-1.515625,-1.015625,-7.9140625,5.6484375,1.90625,0.224609375,2.32617188,-2.2734375
440,4367351,4667351,0.651550293,-0.0464477539,-0.667114258,0.358154297,1.62890625,-1.515625,-1.015625,-7.9140625,5.6484375,1.90625,-0.142578125,2.109375,-2.1484375
441,4371488,4671488,0.65838623,-0.035949707,-0.66418457,0.352294922,2.1484375,-2.06640625,-1.56640625,-8.2421875,5.28125,1.5390625,-0.142578125,2.109375,-2.1484375
442,4382661,4682661,0.665222168,-0.0259399414,-0.660888672,0.346374512,2.1484375,-2.06640625,-1.56640625,-8.2421875,5.28125,1.5390625,0.025390625,2.01171875,-1.87695312
443,4389915,4689915,0.672241211,-0.016784668,-0.657348633,0.340209961,2.09765625,-2.93359375,-1.8515625,-8.5,4.9609375,1.2109375,0.025390625,2.01171875,-1.87695312
444,4407368,4707368,0.679443359,-0.00836181641,-0.653442383,0.333557129,2.09765625,-2.93359375,-1.8515625,-8.5,4.9609375,1.2109375,0.365234375,1.97265625,-1.69921875
445,4411878,4711878,0.686462402,-0.000671386719,-0.649536133,0.326843262,2.078125,-2.9453125,-1.8359375,-8.7109375,4.6640625,0.8515625,0.365234375,1.97265625,-1.69921875
446,4423476,4723476,0.692932129,0.00659179688,-0.645751953,0.320617676,2.078125,-2.9453125,-1.8359375,-8.7109375,4.6640625,0.8515625,0.31640625,1.82421875,-1.55859375
447,4431800,4731800,0.698974609,0.0140991211,-0.642028809,0.314758301,2.0234375,-2.12890625,-0.89453125,-8.8828125,4.3828125,0.484375,0.31640625,1.82421875,-1.55859375
448,4447666,4747666,0.704101562,0.0216064453,-0.63848877,0.309936523,2.0234375,-2.12890625,-0.89453125,-8.8828125,4.3828125,0.484375,-0.05859375,1.58398438,-1.3984375
449,4452714,4752714,0.708618164,0.0289306641,-0.635192871,0.305908203,1.703125,-2.3203125,-1.03515625,-9.0234375,4.1171875,0.1640625,-0.05859375,1.58398438,-1.3984375
450,4466217,4766217,0.71270752,0.0362548828,-0.631896973,0.302368164,1.703125,-2.3203125,-1.03515625,-9.0234375,4.1171875,0.1640625,-0.205078125,1.40039062,-1.21289062
451,4471007,4771007,0.716308594,0.0427246094,-0.62890625,0.299255371,1.4140625,-2.66015625,-1.16015625,-9.1171875,3.8828125,-0.09375,-0.205078125,1.40039062,-1.21289062
452,4486212,4786212,0.720031738,0.0488891602,-0.625793457,0.295898438,1.4140625,-2.66015625,-1.16015625,-9.1171875,3.8828125,-0.09375,-0.029296875,1.265625,-1.015625
453,4489948,4789948,0.723571777,0.053894043,-0.62286377,0.292541504,1.56640625,-3.0703125,-1.890625,-9.1953125,3.6796875,-0.3203125,-0.029296875,1.265625,-1.015625
454,4504502,4804502,0.727294922,0.0585327148,-0.619750977,0.288879395,1.56640625,-3.0703125,-1.890625,-9.1953125,3.6796875,-0.3203125,0.16015625,1.17773438,-0.857421875
455,4509566,4809566,0.730773926,0.0626831055,-0.616882324,0.285522461,1.34765625,-2.4765625,-1.43359375,-9.2421875,3.5078125,-0.546875,0.16015625,1.17773438,-0.857421875
456,4527669,4827669,0.733825684,0.0665283203,-0.614196777,0.282531738,1.34765625,-2.4765625,-1.43359375,-9.2421875,3.5078125,-0.546875,0.078125,0.9765625,-0.69921875
457,4532723,4832723,0.73638916,0.0701904297,-0.611816406,0.280151367,0.97265625,-1.75390625,-0.87890625,-9.2890625,3.359375,-0.7578125,0.078125,0.9765625,-0.69921875
458,4546502,4846502,0.738586426,0.0739135742,-0.609680176,0.278198242,0.97265625,-1.75390625,-0.87890625,-9.2890625,3.359375,-0.7578125,-0.119140625,0.76953125,-0.611328125
459,4551234,4851234,0.740234375,0.077331543,-0.607788086,0.276733398,0.8046875,-1.59765625,-0.71484375,-9.3125,3.2421875,-0.921875,-0.119140625,0.76953125,-0.611328125
460,4567643,4867643,0.741882324,0.0805053711,-0.606018066,0.27545166,0.8046875,-1.59765625,-0.71484375,-9.3125,3.2421875,-0.921875,-0.10546875,0.623046875,-0.455078125
461,4572704,4872704,0.743469238,0.0828857422,-0.604309082,0.274108887,1.203125,-2.06640625,-1.36328125,-9.328125,3.1328125,-1.0390625,-0.10546875,0.623046875,-0.455078125
462,4588012,4888012,0.745361328,0.0843505859,-0.602661133,0.272399902,1.203125,-2.06640625,-1.36328125,-9.328125,3.1328125,-1.0390625,0.2578125,0.56640625,-0.25
463,4592236,4892236,0.747314453,0.0848999023,-0.601013184,0.270385742,1.5078125,-2.4921875,-1.8203125,-9.328125,3.0625,-1.15625,0.2578125,0.56640625,-0.25
464,4606625,4906625,0.749206543,0.0848999023,-0.599487305,0.268432617,1.5078125,-2.4921875,-1.8203125,-9.328125,3.0625,-1.15625,0.376953125,0.470703125,-0.0859375
465,4610362,4910362,0.750732422,0.0846557617,-0.598266602,0.267089844,1.69140625,-2.03125,-1.7734375,-9.3203125,3.0234375,-1.28125,0.376953125,0.470703125,-0.0859375
466,4625840,4925840,0.751647949,0.0845336914,-0.597351074,0.266540527,1.69140625,-2.03125,-1.7734375,-9.3203125,3.0234375,-1.28125,0.013671875,0.17578125,0.041015625
467,4629599,4929599,0.751831055,0.0846557617,-0.596862793,0.267089844,1.37109375,-1.5546875,-1.203125,-9.3046875,3.0078125,-1.3515625,0.013671875,0.17578125,0.041015625
468,4646637,4946637,0.751281738,0.0846557617,-0.596801758,0.268737793,1.37109375,-1.5546875,-1.203125,-9.3046875,3.0078125,-1.3515625,-0.318359375,-0.158203125,0.234375
469,4650381,4950381,0.750366211,0.0841674805,-0.597106934,0.270812988,1.28515625,-2.46875,-1.6328125,-9.296875,3.0390625,-1.34375,-0.318359375,-0.158203125,0.234375
470,4666329,4966329,0.749206543,0.082824707,-0.597717285,0.273010254,1.28515625,-2.46875,-1.6328125,-9.296875,3.0390625,-1.34375,-0.15625,-0.375,0.45703125
471,4670793,4970793,0.748046875,0.0805053711,-0.598571777,0.275024414,1.453125,-3.09765625,-2.609375,-9.2734375,3.09375,-1.2890625,-0.15625,-0.375,0.45703125
472,4686616,4986616,0.746826172,0.0767211914,-0.599731445,0.276977539,1.453125,-3.09765625,-2.609375,-9.2734375,3.09375,-1.2890625,0.1875,-0.591796875,0.751953125
473,4690856,4990856,0.745544434,0.0721435547,-0.601074219,0.278747559,1.5390625,-3.20703125,-2.88671875,-9.2421875,3.203125,-1.203125,0.1875,-0.591796875,0.751953125
474,4703368,5003368,0.74395752,0.0662231445,-0.602722168,0.280883789,1.5390625,-3.20703125,-2.88671875,-9.2421875,3.203125,-1.203125,0.349609375,-0.841796875,1.08398438
475,4712340,5012340,0.742004395,0.0595703125,-0.604553223,0.283447266,1.67578125,-3.44140625,-3.33984375,-9.1875,3.359375,-1.09375,0.349609375,-0.841796875,1.08398438
476,4729019,5029019,0.739501953,0.0518798828,-0.606811523,0.286743164,1.67578125,-3.44140625,-3.33984375,-9.1875,3.359375,-1.09375,0.310546875,-1.15820312,1.42773438
477,4733156,5033156,0.73651123,0.0436401367,-0.60925293,0.290527344,2.140625,-4.33984375,-3.87890625,-9.1171875,3.5703125,-0.9375,0.310546875,-1.15820312,1.42773438
478,4743974,5043974,0.733032227,0.0347290039,-0.612060547,0.29473877,2.140625,-4.33984375,-3.87890625,-9.1171875,3.5703125,-0.9375,0.2890625,-1.4765625,1.72460938
479,4750514,5050514,0.729125977,0.0252075195,-0.614990234,0.299255371,2.26953125,-4.8828125,-4.08984375,-9.015625,3.84375,-0.7265625,0.2890625,-1.4765625,1.72460938
480,4769161,5069161,0.724609375,0.0144042969,-0.618286133,0.304138184,2.26953125,-4.8828125,-4.08984375,-9.015625,3.84375,-0.7265625,0.412109375,-1.7421875,1.98046875
481,4773295,5073295,0.719604492,0.00268554688,-0.621826172,0.309082031,1.8671875,-3.08984375,-1.66015625,-8.8828125,4.15625,-0.4765625,0.412109375,-1.7421875,1.98046875
482,4784286,5084286,0.713867188,-0.00939941406,-0.625610352,0.314575195,1.8671875,-3.08984375,-1.66015625,-8.8828125,4.15625,-0.4765625,0.3046875,-2.12695312,2.24804688
483,4790645,5090645,0.70703125,-0.0217895508,-0.629821777,0.320922852,1.14453125,-1.875,-1.06640625,-8.6953125,4.515625,-0.1875,0.3046875,-2.12695312,2.24804688
484,4807627,5107627,0.69909668,-0.0346069336,-0.634277344,0.32824707,1.14453125,-1.875,-1.06640625,-8.6953125,4.515625,-0.1875,-0.021484375,-2.47265625,2.52929688
485,4811357,5111357,0.690612793,-0.0473632812,-0.63873291,0.335998535,1.453125,-1.625,-1.94921875,-8.46875,4.9140625,0.1953125,-0.021484375,-2.47265625,2.52929688
486,4824535,5124535,0.680847168,-0.0614013672,-0.643371582,0.344604492,1.453125,-1.625,-1.94921875,-8.46875,4.9140625,0.1953125,-0.123046875,-2.72851562,2.80859375
487,4831872,5131872,0.671081543,-0.0748901367,-0.647583008,0.353088379,1.953125,-2.8203125,-3.14453125,-8.1640625,5.34375,0.625,-0.123046875,-2.72851562,2.80859375
488,4850542,5150542,0.660888672,-0.0892333984,-0.651550293,0.361633301,1.953125,-2.8203125,-3.14453125,-8.1640625,5.34375,0.625,0.03515625,-2.63671875,2.84960938
489,4854680,5154680,0.651000977,-0.10369873,-0.654968262,0.369445801,2.7734375,-4.015625,-2.73828125,-7.796875,5.7734375,1.0625,0.03515625,-2.63671875,2.84960938
490,4865110,5165110,0.641540527,-0.117126465,-0.657897949,0.376708984,2.7734375,-4.015625,-2.73828125,-7.796875,5.7734375,1.0625,-0.017578125,-2.42773438,2.62304688
491,4871863,5171863,0.632141113,-0.129638672,-0.660644531,0.383605957,2.14453125,-1.25,0.45703125,-7.3984375,6.1875,1.4296875,-0.017578125,-2.42773438,2.62304688
492,4888254,5188254,0.620910645,-0.143859863,-0.663757324,0.391357422,2.14453125,-1.25,0.45703125,-7.3984375,6.1875,1.4296875,-0.0546875,-2.77734375,2.83984375
493,4891995,5191995,0.608947754,-0.158325195,-0.666748047,0.399475098,1.83984375,0.296875,-0.1328125,-6.9765625,6.5546875,1.7890625,-0.0546875,-2.77734375,2.83984375
494,4904288,5204288,0.595947266,-0.17388916,-0.669250488,0.408325195,1.83984375,0.296875,-0.1328125,-6.9765625,6.5546875,1.7890625,-0.072265625,-3.02929688,3.421875
495,4911776,5211776,0.582824707,-0.190429688,-0.670898438,0.417053223,1.90625,-1.37109375,-2.484375,-6.4296875,6.9609375,2.1875,-0.072265625,-3.02929688,3.421875
496,4927812,5227812,0.570129395,-0.207702637,-0.671691895,0.425048828,1.90625,-1.37109375,-2.484375,-6.4296875,6.9609375,2.1875,0.40234375,-2.734375,3.32226562
497,4931963,5231963,0.560241699,-0.222229004,-0.671569824,0.430969238,4.66796875,-2.1015625,-2.27734375,-5.78125,7.3828125,2.515625,0.40234375,-2.734375,3.32226562
498,4944644,5244644,0.550598145,-0.237487793,-0.670715332,0.436523438,4.66796875,-2.1015625,-2.27734375,-5.78125,7.3828125,2.515625,0.65234375,-2.05664062,2.79101562
499,4950645,5250645,0.541442871,-0.25201416,-0.669372559,0.441833496,3.73046875,0.16796875,0.73828125,-5.2265625,7.71875,2.6796875,0.65234375,-2.05664062,2.79101562
500,4968543,5268543,0.532287598,-0.26550293,-0.66809082,0.447021484,3.73046875,0.16796875,0.73828125,-5.2265625,7.71875,2.6796875,0.455078125,-2.1796875,2.95898438
501,4972503,5272503,0.52130127,-0.281005859,-0.666320801,0.453125,1.55859375,0.796875,3.203125,-4.6640625,8.0078125,2.78125,0.455078125,-2.1796875,2.95898438
502,4983156,5283156,0.510314941,-0.297180176,-0.663757324,0.45892334,1.55859375,0.796875,3.203125,-4.6640625,8.0078125,2.78125,0.830078125,-2.36914062,3.47070312
503,4991720,5291720,0.499389648,-0.315429688,-0.659667969,0.464782715,1.96484375,-0.3125,1.50390625,-4,8.3125,2.875,0.830078125,-2.36914062,3.47070312
504,5006214,5306214,0.489501953,-0.334533691,-0.653808594,0.470092773,1.96484375,-0.3125,1.50390625,-4,8.3125,2.875,1.71289062,-2.16015625,4.05273438
505,5012195,5312195,0.480773926,-0.354553223,-0.646057129,0.475158691,4.03515625,-0.83203125,-0.51171875,-3.234375,8.640625,2.8203125,1.71289062,-2.16015625,4.05273438
506,5024503,5324503,0.473327637,-0.373840332,-0.637207031,0.479797363,4.03515625,-0.83203125,-0.51171875,-3.234375,8.640625,2.8203125,1.87695312,-1.35351562,3.5234375
507,5030499,5330499,0.467102051,-0.39074707,-0.628540039,0.483825684,4.671875,3.23046875,2.328125,-2.453125,8.9453125,2.5859375,1.87695312,-1.35351562,3.5234375
508,5047625,5347625,0.460632324,-0.405334473,-0.621032715,0.487670898,4.671875,3.23046875,2.328125,-2.453125,8.9453125,2.5859375,1.21289062,-1.25976562,3.03320312
509,5052523,5352523,0.453125,-0.417785645,-0.61505127,0.491760254,2.71875,5.05078125,4.484375,-1.8046875,9.15625,2.34375,1.21289062,-1.25976562,3.03320312
510,5063277,5363277,0.443725586,-0.430358887,-0.609436035,0.496459961,2.71875,5.05078125,4.484375,-1.8046875,9.15625,2.34375,0.546875,-1.44726562,2.89453125
511,5069804,5369804,0.434997559,-0.441833496,-0.604125977,0.500610352,2.484375,2.828125,2.609375,-1.1875,9.2734375,2.2265625,0.546875,-1.44726562,2.89453125
512,5089291,5389291,0.426635742,-0.454406738,-0.597473145,0.504455566,2.484375,2.828125,2.609375,-1.1875,9.2734375,2.2265625,1.12695312,-1.29492188,2.98632812
513,5093388,5393388,0.419311523,-0.468261719,-0.589172363,0.507751465,2.61328125,-0.046875,-0.453125,-0.5859375,9.3515625,2.109375,1.12695312,-1.29492188,2.98632812
514,5105134,5405134,0.413452148,-0.481750488,-0.580078125,0.510314941,2.61328125,-0.046875,-0.453125,-0.5859375,9.3515625,2.109375,1.68945312,-0.951171875,2.87695312
515,5111138,5411138,0.407897949,-0.49432373,-0.570861816,0.513183594,2.921875,1.30859375,-0.01953125,0.0234375,9.4140625,1.828125,1.68945312,-0.951171875,2.87695312
516,5126623,5426623,0.401306152,-0.505249023,-0.562805176,0.516723633,2.921875,1.30859375,-0.01953125,0.0234375,9.4140625,1.828125,0.78515625,-0.91015625,2.77539062
517,5131061,5431061,0.393066406,-0.514282227,-0.556762695,0.520629883,2.20703125,4.6953125,2.953125,0.5859375,9.4375,1.578125,0.78515625,-0.91015625,2.77539062
518,5143087,5443087,0.381896973,-0.523010254,-0.552062988,0.52520752,2.20703125,4.6953125,2.953125,0.5859375,9.4375,1.578125,-0.306640625,-1.40429688,2.75976562
519,5152236,5452236,0.369812012,-0.530700684,-0.548828125,0.529541016,1.765625,3.59765625,2.39453125,1.140625,9.3828125,1.5234375,-0.306640625,-1.40429688,2.75976562
520,5167250,5467250,0.356628418,-0.538452148,-0.545837402,0.533752441,1.765625,3.59765625,2.39453125,1.140625,9.3828125,1.5234375,-0.49609375,-1.59375,2.70117188
521,5172659,5472659,0.344543457,-0.546325684,-0.542358398,0.53729248,1.86328125,1.46484375,0.125,1.6953125,9.296875,1.5703125,-0.49609375,-1.59375,2.70117188
522,5183818,5483818,0.33392334,-0.55456543,-0.537780762,0.540100098,1.86328125,1.46484375,0.125,1.6953125,9.296875,1.5703125,0.26171875,-1.26953125,2.38867188
523,5189805,5489805,0.325561523,-0.56262207,-0.532287598,0.542358398,3.02734375,0.23828125,-1.55859375,2.21875,9.1796875,1.53125,0.26171875,-1.26953125,2.38867188
524,5207200,5507200,0.318725586,-0.570251465,-0.526245117,0.544311523,3.02734375,0.23828125,-1.55859375,2.21875,9.1796875,1.53125,0.669921875,-0.853515625,2.05859375
525,5211711,5511711,0.312683105,-0.577209473,-0.520446777,0.546142578,2.65625,1.0625,-0.4921875,2.6640625,9.0859375,1.3828125,0.669921875,-0.853515625,2.05859375
526,5223641,5523641,0.305847168,-0.58416748,-0.514709473,0.548034668,2.65625,1.0625,-0.4921875,2.6640625,9.0859375,1.3828125,0.39453125,-0.912109375,1.99609375
527,5232794,5532794,0.298400879,-0.590209961,-0.510192871,0.549865723,1.76953125,2.1953125,1.37890625,3.0546875,8.984375,1.234375,0.39453125,-0.912109375,1.99609375
528,5246655,5546655,0.289367676,-0.595825195,-0.506530762,0.551940918,1.76953125,2.1953125,1.37890625,3.0546875,8.984375,1.234375,-0.287109375,-1.11328125,1.99804688
529,5252466,5552466,0.27947998,-0.600830078,-0.50390625,0.554016113,1.421875,2.4375,1.7265625,3.4375,8.859375,1.15625,-0.287109375,-1.11328125,1.99804688
530,5263791,5563791,0.268615723,-0.605651855,-0.501831055,0.556030273,1.421875,2.4375,1.7265625,3.4375,8.859375,1.15625,-0.626953125,-1.27734375,1.9453125
531,5269777,5569777,0.257568359,-0.610229492,-0.500183105,0.557800293,1.15625,1.453125,1.15234375,3.8203125,8.6953125,1.15625,-0.626953125,-1.27734375,1.9453125
532,5287866,5587866,0.247253418,-0.614257812,-0.498779297,0.559265137,1.15625,1.453125,1.15234375,3.8203125,8.6953125,1.15625,-0.669921875,-1.21484375,1.7265625
533,5292351,5592351,0.237792969,-0.617736816,-0.497680664,0.56048584,1.140625,1.546875,0.80078125,4.1796875,8.5234375,1.1640625,-0.669921875,-1.21484375,1.7265625
534,5302591,5602591,0.22857666,-0.621032715,-0.496643066,0.561645508,1.140625,1.546875,0.80078125,4.1796875,8.5234375,1.1640625,-0.572265625,-1.01367188,1.38085938
535,5314435,5614435,0.221130371,-0.623779297,-0.495727539,0.56237793,0.8515625,1.3125,0.78515625,4.46875,8.375,1.1796875,-0.572265625,-1.01367188,1.38085938
536,5328242,5628242,0.214050293,-0.626403809,-0.494750977,0.563049316,0.8515625,1.3125,0.78515625,4.46875,8.375,1.1796875,-0.3828125,-0.765625,1.04101562
537,5332365,5632365,0.208496094,-0.628540039,-0.493835449,0.563598633,0.578125,1.54296875,0.66796875,4.703125,8.2578125,1.1796875,-0.3828125,-0.765625,1.04101562
538,5343050,5643050,0.203735352,-0.630493164,-0.492797852,0.564025879,0.578125,1.54296875,0.66796875,4.703125,8.2578125,1.1796875,-0.19140625,-0.51953125,0.751953125
539,5350840,5650840,0.199951172,-0.631958008,-0.492004395,0.564453125,0.5703125,1.90625,0.5703125,4.8671875,8.1640625,1.1640625,-0.19140625,-0.51953125,0.751953125
540,5366537,5666537,0.196716309,-0.6328125,-0.491638184,0.564941406,0.5703125,1.90625,0.5703125,4.8671875,8.1640625,1.1640625,-0.298828125,-0.275390625,0.4609375
541,5370280,5670280,0.194030762,-0.632995605,-0.491882324,0.565429688,0.3359375,2.57421875,0.69140625,4.984375,8.109375,1.15625,-0.298828125,-0.275390625,0.4609375
542,5384466,5684466,0.191772461,-0.632385254,-0.493041992,0.565917969,0.3359375,2.57421875,0.69140625,4.984375,8.109375,1.15625,-0.53125,-0.08203125,0.046875
543,5390059,5690059,0.190185547,-0.63092041,-0.495300293,0.566101074,-0.5234375,3.41796875,0.8671875,5.0390625,8.0703125,1.2109375,-0.53125,-0.08203125,0.046875
544,5408588,5708588,0.188781738,-0.628723145,-0.498596191,0.566040039,-0.5234375,3.41796875,0.8671875,5.0390625,8.0703125,1.2109375,-0.857421875,-0.0390625,-0.36328125
545,5413019,5713019,0.1875,-0.626281738,-0.502502441,0.565795898,-0.94921875,3.83984375,-0.0859375,5.0078125,8.0703125,1.3203125,-0.857421875,-0.0390625,-0.36328125
546,5424732,5724732,0.186706543,-0.623901367,-0.50604248,0.565490723,-0.94921875,3.83984375,-0.0859375,5.0078125,8.0703125,1.3203125,-0.642578125,0.060546875,-0.427734375
547,5429777,5729777,0.186950684,-0.621887207,-0.508789062,0.565185547,-0.16015625,2.16796875,-0.4921875,4.9453125,8.09375,1.4609375,-0.642578125,0.060546875,-0.427734375
548,5446555,5746555,0.188171387,-0.620117188,-0.510803223,0.564941406,-0.16015625,2.16796875,-0.4921875,4.9453125,8.09375,1.4609375,-0.208984375,0.251953125,-0.501953125
549,5450288,5750288,0.189880371,-0.618286133,-0.512695312,0.564575195,-0.015625,2.89453125,0.2421875,4.875,8.1328125,1.53125,-0.208984375,0.251953125,-0.501953125
550,5464867,5764867,0.192260742,-0.615722656,-0.515380859,0.564208984,-0.015625,2.89453125,0.2421875,4.875,8.1328125,1.53125,-0.375,0.408203125,-0.796875
551,5470476,5770476,0.194885254,-0.612243652,-0.519042969,0.563659668,-0.01953125,3.98828125,1.2734375,4.765625,8.1875,1.609375,-0.375,0.408203125,-0.796875
552,5490117,5790117,0.197814941,-0.607849121,-0.523925781,0.562988281,-0.01953125,3.98828125,1.2734375,4.765625,8.1875,1.609375,-0.806640625,0.556640625,-1.2734375
553,5494259,5794259,0.20111084,-0.602416992,-0.529968262,0.561950684,0.08203125,4.203125,1.35546875,4.5859375,8.28125,1.7578125,-0.806640625,0.556640625,-1.2734375
554,5505317,5805317,0.205078125,-0.596069336,-0.53692627,0.560668945,0.08203125,4.203125,1.35546875,4.5859375,8.28125,1.7578125,-1.06640625,0.75390625,-1.76757812
555,5510377,5810377,0.209777832,-0.588867188,-0.544677734,0.559082031,0.47265625,4.0234375,2.1328125,4.3125,8.3828125,1.9765625,-1.06640625,0.75390625,-1.76757812
556,5526971,5826971,0.215209961,-0.580566406,-0.553344727,0.557128906,0.47265625,4.0234375,2.1328125,4.3125,8.3828125,1.9765625,-1.30273438,0.978515625,-2.3046875
557,5530714,5830714,0.220825195,-0.571716309,-0.562438965,0.554992676,0.73828125,4.4296875,2.546875,3.9296875,8.515625,2.25,-1.30273438,0.978515625,-2.3046875
558,5545637,5845637,0.226928711,-0.561218262,-0.572814941,0.552612305,0.73828125,4.4296875,2.546875,3.9296875,8.515625,2.25,-1.68164062,1.15820312,-2.66015625
559,5549410,5849410,0.233276367,-0.549499512,-0.58404541,0.550048828,1.78515625,4.5390625,2.41015625,3.4609375,8.6328125,2.578125,-1.68164062,1.15820312,-2.66015625
560,5566574,5866574,0.24017334,-0.536376953,-0.595825195,0.547363281,1.78515625,4.5390625,2.41015625,3.4609375,8.6328125,2.578125,-1.96875,1.44726562,-3.02539062
561,5570310,5870310,0.247375488,-0.522521973,-0.60760498,0.544555664,2.8828125,4.0234375,2.11328125,2.8984375,8.7265625,2.9921875,-1.96875,1.44726562,-3.02539062
562,5592359,5892359,0.255432129,-0.506958008,-0.620056152,0.541503906,2.8828125,4.0234375,2.11328125,2.8984375,8.7265625,2.9921875,-2.1953125,1.80859375,-3.375
563,5596933,5896933,0.26385498,-0.490661621,-0.632263184,0.538391113,4.2734375,3.51953125,2.04296875,2.234375,8.7734375,3.4453125,-2.1953125,1.80859375,-3.375
564,5608509,5908509,0.273071289,-0.473266602,-0.644348145,0.535095215,4.2734375,3.51953125,2.04296875,2.234375,8.7734375,3.4453125,-2.1640625,2.13867188,-3.515625
565,5612626,5912626,0.28314209,-0.45513916,-0.655822754,0.531555176,5.0625,2.96875,1.45703125,1.484375,8.75,3.9140625,-2.1640625,2.13867188,-3.515625
566,5624165,5924165,0.293395996,-0.438232422,-0.665588379,0.528137207,5.0625,2.96875,1.45703125,1.484375,8.75,3.9140625,-1.765625,2.42773438,-3.48828125
567,5634327,5934327,0.304748535,-0.421142578,-0.674377441,0.524353027,4.75,1.3515625,0.66796875,0.6875,8.6796875,4.3203125,-1.765625,2.42773438,-3.48828125
568,5650126,5950126,0.317138672,-0.403930664,-0.682250977,0.520324707,4.75,1.3515625,0.66796875,0.6875,8.6796875,4.3203125,-1.31445312,2.64453125,-3.34960938
569,5654259,5954259,0.329956055,-0.38684082,-0.689208984,0.516174316,4.3359375,1.4609375,0.76171875,-0.125,8.5703125,4.609375,-1.31445312,2.64453125,-3.34960938
570,5664839,5964839,0.342224121,-0.370788574,-0.695068359,0.512145996,4.3359375,1.4609375,0.76171875,-0.125,8.5703125,4.609375,-1.10351562,2.6953125,-3.1640625
571,5673446,5973446,0.354309082,-0.355163574,-0.700073242,0.508117676,3.73046875,1.08984375,0.5,-0.9375,8.4453125,4.796875,-1.10351562,2.6953125,-3.1640625
572,5686225,5986225,0.3671875,-0.338867188,-0.704711914,0.50378418,3.73046875,1.08984375,0.5,-0.9375,8.4453125,4.796875,-0.93359375,2.77734375,-3.05859375
573,5689952,5989952,0.379577637,-0.323181152,-0.708557129,0.499450684,3.24609375,1.0234375,0.54296875,-1.71875,8.28125,4.90625,-0.93359375,2.77734375,-3.05859375
574,5706606,6006606,0.392150879,-0.307312012,-0.711853027,0.494995117,3.24609375,1.0234375,0.54296875,-1.71875,8.28125,4.90625,-0.8046875,2.77929688,-2.890625
575,5710370,6010370,0.404296875,-0.292236328,-0.714477539,0.490539551,2.28125,0.7265625,0.62890625,-2.4765625,8.078125,4.9375,-0.8046875,2.77929688,-2.890625
576,5728584,6028584,0.416992188,-0.276672363,-0.716674805,0.485717773,2.28125,0.7265625,0.62890625,-2.4765625,8.078125,4.9375,-0.669921875,2.80664062,-2.81054688
577,5732695,6032695,0.429382324,-0.261291504,-0.718383789,0.480834961,2.625,1.25390625,0.6875,-3.203125,7.859375,4.9140625,-0.669921875,2.80664062,-2.81054688
578,5745513,6045513,0.441467285,-0.246398926,-0.719665527,0.475891113,2.625,1.25390625,0.6875,-3.203125,7.859375,4.9140625,-0.595703125,2.8359375,-2.7578125
579,5752831,6052831,0.453369141,-0.231933594,-0.720397949,0.470825195,2.5625,1.00390625,0.74609375,-3.90625,7.609375,4.8203125,-0.595703125,2.8359375,-2.7578125
580,5765501,6065501,0.466003418,-0.217041016,-0.72064209,0.465148926,2.5625,1.00390625,0.74609375,-3.90625,7.609375,4.8203125,-0.373046875,2.95703125,-2.74804688
581,5770548,6070548,0.479431152,-0.201782227,-0.720275879,0.45892334,2.55859375,0.65625,0.6328125,-4.59375,7.34375,4.6640625,-0.373046875,2.95703125,-2.74804688
582,5784884,6084884,0.492431641,-0.187316895,-0.719482422,0.452575684,2.55859375,0.65625,0.6328125,-4.59375,7.34375,4.6640625,-0.224609375,3.08203125,-2.8046875
583,5793674,6093674,0.505554199,-0.172790527,-0.718261719,0.445739746,2.39453125,0.984375,1.1796875,-5.2734375,7.0546875,4.421875,-0.224609375,3.08203125,-2.8046875
584,5810113,6110113,0.518859863,-0.158630371,-0.716491699,0.438537598,2.39453125,0.984375,1.1796875,-5.2734375,7.0546875,4.421875,0.0234375,3.08984375,-2.72460938
585,5814225,6114225,0.532287598,-0.145324707,-0.714050293,0.430908203,2.34765625,-0.6484375,-0.7109375,-5.9140625,6.734375,4.09375,0.0234375,3.08984375,-2.72460938
586,5824307,6124307,0.546020508,-0.13293457,-0.710876465,0.422851562,2.34765625,-0.6484375,-0.7109375,-5.9140625,6.734375,4.09375,0.48828125,3.20117188,-2.59960938
587,5833271,6133271,0.559753418,-0.121459961,-0.707214355,0.414489746,2.55859375,-1.62109375,-1.265625,-6.5078125,6.4453125,3.6875,0.48828125,3.20117188,-2.59960938
588,5848141,6148141,0.573852539,-0.109802246,-0.703063965,0.405395508,2.55859375,-1.62109375,-1.265625,-6.5078125,6.4453125,3.6875,0.646484375,3.09375,-2.52929688
589,5852292,6152292,0.586791992,-0.098815918,-0.699035645,0.39666748,2.21484375,-1.83203125,-1.1484375,-7.046875,6.15625,3.1875,0.646484375,3.09375,-2.52929688
590,5865758,6165758,0.599365234,-0.0874633789,-0.694763184,0.387878418,2.21484375,-1.83203125,-1.1484375,-7.046875,6.15625,3.1875,0.484375,2.8515625,-2.35742188
591,5870816,6170816,0.611206055,-0.0765380859,-0.690307617,0.379455566,2.4921875,-2.35546875,-1.8046875,-7.515625,5.8359375,2.6953125,0.484375,2.8515625,-2.35742188
592,5888010,6188010,0.621887207,-0.0667724609,-0.685974121,0.371887207,2.4921875,-2.35546875,-1.8046875,-7.515625,5.8359375,2.6953125,0.5,2.67382812,-2.08398438
593,5892508,6192508,0.631958008,-0.0575561523,-0.681518555,0.364440918,2.26953125,-3.49609375,-1.7890625,-7.90625,5.5234375,2.21875,0.5,2.67382812,-2.08398438
594,5906074,6206074,0.641845703,-0.0479736328,-0.677001953,0.356933594,2.26953125,-3.49609375,-1.7890625,-7.90625,5.5234375,2.21875,0.357421875,2.39453125,-1.91015625
595,5913385,6213385,0.65032959,-0.0393066406,-0.672790527,0.350463867,2.27734375,-3.46875,-1.80078125,-8.21875,5.2265625,1.7734375,0.357421875,2.39453125,-1.91015625
596,5925489,6225489,0.658569336,-0.0307617188,-0.668457031,0.344238281,2.27734375,-3.46875,-1.80078125,-8.21875,5.2265625,1.7734375,0.2578125,2.11328125,-1.609375
597,5930521,6230521,0.666137695,-0.0228881836,-0.66418457,0.338500977,2.52734375,-3.45703125,-2.125,-8.46875,4.9453125,1.3671875,0.2578125,2.11328125,-1.609375
598,5944112,6244112,0.673034668,-0.0156860352,-0.660095215,0.333251953,2.52734375,-3.45703125,-2.125,-8.46875,4.9453125,1.3671875,0.232421875,1.88671875,-1.35546875
599,5952662,6252662,0.679260254,-0.00909423828,-0.656188965,0.328552246,2.25390625,-3.2890625,-2.26171875,-8.65625,4.703125,1.0078125,0.232421875,1.88671875,-1.35546875
600,5967631,6267631,0.68536377,-0.00207519531,-0.652160645,0.323974609,2.25390625,-3.2890625,-2.26171875,-8.65625,4.703125,1.0078125,0.0546875,1.6953125,-1.25
601,5971770,6271770,0.690429688,0.00439453125,-0.648742676,0.320129395,1.90625,-2.19140625,-0.8984375,-8.8046875,4.484375,0.6796875,0.0546875,1.6953125,-1.25
602,5986988,6286988,0.695373535,0.0112915039,-0.645202637,0.31628418,1.90625,-2.19140625,-0.8984375,-8.8046875,4.484375,0.6796875,-0.080078125,1.47460938,-1.16601562
603,5990751,6290751,0.699645996,0.0175170898,-0.642089844,0.312927246,1.53125,-2.09375,-1.28515625,-8.9296875,4.2734375,0.4140625,-0.080078125,1.47460938,-1.16601562
604,6004758,6304758,0.703918457,0.0238647461,-0.63885498,0.309631348,1.53125,-2.09375,-1.28515625,-8.9296875,4.2734375,0.4140625,-0.0859375,1.33203125,-1.03515625
605,6013348,6313348,0.707641602,0.0294799805,-0.635925293,0.306640625,1.359375,-1.6328125,-0.8828125,-9.0234375,4.078125,0.1640625,-0.0859375,1.33203125,-1.03515625
606,6026408,6326408,0.711242676,0.0352783203,-0.632995605,0.303649902,1.359375,-1.6328125,-0.8828125,-9.0234375,4.078125,0.1640625,-0.10546875,1.19921875,-0.98046875
607,6030165,6330165,0.714477539,0.0406494141,-0.630310059,0.300842285,1.40625,-1.6796875,-1.12109375,-9.109375,3.8984375,-0.0546875,-0.10546875,1.19921875,-0.98046875
608,6049163,6349163,0.717956543,0.0460205078,-0.627441406,0.297790527,1.40625,-1.6796875,-1.12109375,-9.109375,3.8984375,-0.0546875,-0.01171875,1.13867188,-0.888671875
609,6053515,6353515,0.721313477,0.0505981445,-0.624694824,0.294677734,1.15234375,-2.07421875,-1.45703125,-9.1640625,3.71875,-0.2578125,-0.01171875,1.13867188,-0.888671875
610,6066580,6366580,0.72467041,0.0543823242,-0.622070312,0.291442871,1.15234375,-2.07421875,-1.45703125,-9.1640625,3.71875,-0.2578125,0.20703125,1.06054688,-0.751953125
611,6070327,6370327,0.727722168,0.0579223633,-0.619567871,0.288452148,1.0078125,-2.1953125,-1.16015625,-9.2109375,3.5703125,-0.4765625,0.20703125,1.06054688,-0.751953125
612,6085493,6385493,0.73034668,0.0619506836,-0.617248535,0.285888672,1.0078125,-2.1953125,-1.16015625,-9.2109375,3.5703125,-0.4765625,-0.10546875,0.853515625,-0.71484375
613,6092053,6392053,0.73223877,0.0662841797,-0.61529541,0.284362793,0.8203125,-1.3671875,-0.98046875,-9.25,3.4296875,-0.65625,-0.10546875,0.853515625,-0.71484375
614,6105660,6405660,0.733459473,0.0708618164,-0.613708496,0.283630371,0.8203125,-1.3671875,-0.98046875,-9.25,3.4296875,-0.65625,-0.486328125,0.5859375,-0.6328125
615,6112641,6412641,0.734130859,0.0752563477,-0.612426758,0.28338623,0.78125,-1.59375,-1.33203125,-9.2890625,3.3125,-0.765625,-0.486328125,0.5859375,-0.6328125
616,6128150,6428150,0.734802246,0.0793457031,-0.611206055,0.283203125,0.78125,-1.59375,-1.33203125,-9.2890625,3.3125,-0.765625,-0.388671875,0.48046875,-0.525390625
617,6137171,6437171,0.735534668,0.0825805664,-0.610168457,0.282714844,0.875,-2.25,-2.2578125,-9.3046875,3.203125,-0.8359375,-0.388671875,0.48046875,-0.525390625
618,6148521,6448521,0.73638916,0.0850219727,-0.609130859,0.281921387,0.875,-2.25,-2.2578125,-9.3046875,3.203125,-0.8359375,-0.05859375,0.39453125,-0.345703125
619,6152643,6452643,0.737365723,0.0865478516,-0.608215332,0.280883789,1.08203125,-2.515625,-2.64453125,-9.3203125,3.125,-0.90625,-0.05859375,0.39453125,-0.345703125
620,6165495,6465495,0.738220215,0.0873413086,-0.607543945,0.279846191,1.08203125,-2.515625,-2.64453125,-9.3203125,3.125,-0.90625,0.115234375,0.197265625,-0.115234375
621,6172067,6472067,0.738647461,0.0872802734,-0.60723877,0.27923584,1.43359375,-2.76953125,-3.12890625,-9.328125,3.0703125,-0.9609375,0.115234375,0.197265625,-0.115234375
622,6185913,6485913,0.738708496,0.0864257812,-0.607421875,0.279052734,1.43359375,-2.76953125,-3.12890625,-9.328125,3.0703125,-0.9609375,0.12890625,-0.140625,0.138671875
623,6192560,6492560,0.73815918,0.0850219727,-0.608093262,0.27947998,1.34765625,-3.04296875,-2.8359375,-9.3203125,3.078125,-0.984375,0.12890625,-0.140625,0.138671875
624,6208547,6508547,0.736999512,0.0833129883,-0.60925293,0.280578613,1.34765625,-3.04296875,-2.8359375,-9.3203125,3.078125,-0.984375,-0.044921875,-0.552734375,0.3828125
625,6213006,6513006,0.734985352,0.0811157227,-0.611022949,0.282531738,1.44921875,-2.921875,-2.46875,-9.3046875,3.109375,-0.9296875,-0.044921875,-0.552734375,0.3828125
626,6226140,6526140,0.732177734,0.0785522461,-0.613464355,0.285400391,1.44921875,-2.921875,-2.46875,-9.3046875,3.109375,-0.9296875,-0.267578125,-0.955078125,0.55859375
627,6232894,6532894,0.728881836,0.0756835938,-0.616210938,0.288635254,1.5,-2.85546875,-2.6171875,-9.28125,3.1953125,-0.78125,-0.267578125,-0.955078125,0.55859375
628,6245862,6545862,0.724975586,0.0717163086,-0.619567871,0.292358398,1.5,-2.85546875,-2.6171875,-9.28125,3.1953125,-0.78125,-0.171875,-1.32617188,0.857421875
629,6252269,6552269,0.72064209,0.0661621094,-0.623352051,0.296203613,2.0078125,-3.66796875,-4.140625,-9.25,3.3203125,-0.5625,-0.171875,-1.32617188,0.857421875
630,6266168,6566168,0.716430664,0.0592041016,-0.627197266,0.299743652,2.0078125,-3.66796875,-4.140625,-9.25,3.3203125,-0.5625,0.27734375,-1.58984375,1.27539062
631,6272557,6572557,0.712402344,0.0509033203,-0.630859375,0.303100586,2.77734375,-4.5078125,-5.1015625,-9.1796875,3.5078125,-0.2890625,0.27734375,-1.58984375,1.27539062
632,6288597,6588597,0.708007812,0.0405273438,-0.63482666,0.30670166,2.77734375,-4.5078125,-5.1015625,-9.1796875,3.5078125,-0.2890625,0.603515625,-1.7890625,1.70703125
633,6292738,6592738,0.703430176,0.0297241211,-0.638671875,0.310546875,3.08984375,-4.12109375,-3.93359375,-9.0703125,3.7734375,-0.0390625,0.603515625,-1.7890625,1.70703125
634,6305008,6605008,0.697570801,0.0175170898,-0.643005371,0.315551758,3.08984375,-4.12109375,-3.93359375,-9.0703125,3.7734375,-0.0390625,0.412109375,-2.15625,2.04296875
635,6313651,6613651,0.691223145,0.00622558594,-0.647277832,0.321228027,2.734375,-3.33203125,-2.78515625,-8.90625,4.09375,0.265625,0.412109375,-2.15625,2.04296875
636,6325495,6625495,0.683227539,-0.00592041016,-0.65222168,0.32824707,2.734375,-3.33203125,-2.78515625,-8.90625,4.09375,0.265625,0.029296875,-2.53125,2.23828125
637,6331791,6631791,0.674316406,-0.0182495117,-0.657470703,0.335754395,1.91015625,-2.81640625,-1.21484375,-8.6953125,4.4609375,0.6484375,0.029296875,-2.53125,2.23828125
638,6345696,6645696,0.664733887,-0.0303955078,-0.662719727,0.343566895,1.91015625,-2.81640625,-1.21484375,-8.6953125,4.4609375,0.6484375,-0.15234375,-2.8125,2.39257812
639,6351697,6651697,0.654296875,-0.0430297852,-0.668029785,0.351806641,1.53125,-1.70703125,-1.13671875,-8.4296875,4.84375,1.109375,-0.15234375,-2.8125,2.39257812
640,6370185,6670185,0.643249512,-0.0562133789,-0.673217773,0.360290527,1.53125,-1.70703125,-1.13671875,-8.4296875,4.84375,1.109375,-0.177734375,-3.07617188,2.69726562
641,6374330,6674330,0.631591797,-0.0701904297,-0.678161621,0.369140625,1.984375,-1.69140625,-1.8203125,-8.078125,5.25,1.6015625,-0.177734375,-3.07617188,2.69726562
642,6385310,6685310,0.619812012,-0.0845336914,-0.682617188,0.377807617,1.984375,-1.69140625,-1.8203125,-8.078125,5.25,1.6015625,-0.0625,-3.11914062,2.85351562
643,6393932,6693932,0.608276367,-0.0986328125,-0.686462402,0.386047363,2.41015625,-1.53125,-2.16015625,-7.6640625,5.6640625,2.09375,-0.0625,-3.11914062,2.85351562
644,6405492,6705492,0.59552002,-0.114135742,-0.690185547,0.394958496,2.41015625,-1.53125,-2.16015625,-7.6640625,5.6640625,2.09375,-0.017578125,-3.15234375,3.05664062
645,6411470,6711470,0.582397461,-0.129638672,-0.693481445,0.403869629,2.6875,-2.18359375,-1.84765625,-7.171875,6.0859375,2.546875,-0.017578125,-3.15234375,3.05664062
646,6425396,6725396,0.569396973,-0.143798828,-0.696594238,0.41217041,2.6875,-2.18359375,-1.84765625,-7.171875,6.0859375,2.546875,-0.216796875,-3.06835938,2.8125
647,6431398,6731398,0.556091309,-0.156860352,-0.699584961,0.420349121,2.5078125,-0.4375,0.2890625,-6.609375,6.484375,2.9765625,-0.216796875,-3.06835938,2.8125
648,6450959,6750959,0.542175293,-0.16986084,-0.702453613,0.428710938,2.5078125,-0.4375,0.2890625,-6.609375,6.484375,2.9765625,-0.357421875,-3.0859375,2.796875
649,6455102,6755102,0.529052734,-0.182556152,-0.704711914,0.436096191,2.2109375,0.09375,1.1328125,-6.046875,6.796875,3.3984375,-0.357421875,-3.0859375,2.796875
650,6464929,6764929,0.515319824,-0.197509766,-0.706481934,0.443115234,2.2109375,0.09375,1.1328125,-6.046875,6.796875,3.3984375,0.306640625,-3.07226562,2.86914062
651,6473573,6773573,0.503173828,-0.21307373,-0.707092285,0.448852539,2.29296875,0.515625,0.86328125,-5.4375,7.1015625,3.7421875,0.306640625,-3.07226562,2.86914062
652,6487973,6787973,0.491271973,-0.231079102,-0.706359863,0.454223633,2.29296875,0.515625,0.86328125,-5.4375,7.1015625,3.7421875,1.125,-2.90429688,3.18554688
653,6492872,6792872,0.48034668,-0.249633789,-0.704467773,0.45892334,3.19921875,0.35546875,-0.36328125,-4.7734375,7.453125,3.9375,1.125,-2.90429688,3.18554688
654,6504706,6804706,0.469787598,-0.269592285,-0.701538086,0.46307373,3.19921875,0.35546875,-0.36328125,-4.7734375,7.453125,3.9375,1.65039062,-2.64257812,3.13476562
655,6510701,6810701,0.46081543,-0.288696289,-0.697875977,0.466125488,4.46484375,-1.13671875,-1.72265625,-4.046875,7.8359375,3.953125,1.65039062,-2.64257812,3.13476562
656,6526199,6826199,0.453186035,-0.306091309,-0.693786621,0.468566895,4.46484375,-1.13671875,-1.72265625,-4.046875,7.8359375,3.953125,1.64453125,-2.01953125,2.65429688
657,6533319,6833319,0.445678711,-0.3203125,-0.690368652,0.471374512,3.65625,0.2421875,0.41796875,-3.390625,8.1796875,3.84375,1.64453125,-2.01953125,2.65429688
658,6543761,6843761,0.434997559,-0.333129883,-0.688049316,0.475769043,3.65625,0.2421875,0.41796875,-3.390625,8.1796875,3.84375,0.095703125,-2.2890625,2.58203125
659,6552895,6852895,0.421630859,-0.343444824,-0.687561035,0.481140137,2.46484375,6.58203125,6.6171875,-2.8125,8.390625,3.8125,0.095703125,-2.2890625,2.58203125
660,6565856,6865856,0.405517578,-0.352905273,-0.688049316,0.487426758,2.46484375,6.58203125,6.6171875,-2.8125,8.390625,3.8125,-0.908203125,-2.77929688,2.70703125
661,6572304,6872304,0.389587402,-0.362854004,-0.687988281,0.493164062,2.3046875,2.89453125,4.25390625,-2.15625,8.4765625,4.03125,-0.908203125,-2.77929688,2.70703125
662,6584852,6884852,0.375183105,-0.375061035,-0.685974121,0.49798584,2.3046875,2.89453125,4.25390625,-2.15625,8.4765625,4.03125,0.458984375,-2.55273438,2.87695312
663,6592399,6892399,0.363647461,-0.389648438,-0.68145752,0.501525879,4.09375,-1.5703125,-1.55859375,-1.453125,8.5390625,4.171875,0.458984375,-2.55273438,2.87695312
664,6608528,6908528,0.355163574,-0.40612793,-0.674682617,0.503723145,4.09375,-1.5703125,-1.55859375,-1.453125,8.5390625,4.171875,2.13085938,-1.9453125,2.734375
665,6613025,6913025,0.350158691,-0.42199707,-0.666809082,0.504638672,4.59375,-2.1953125,-2.82421875,-0.765625,8.703125,3.984375,2.13085938,-1.9453125,2.734375
666,6626013,6926013,0.346496582,-0.438598633,-0.657653809,0.505065918,4.59375,-2.1953125,-2.82421875,-0.765625,8.703125,3.984375,2.40625,-1.33398438,2.28125
667,6633670,6933670,0.342468262,-0.452209473,-0.649963379,0.505737305,3.9609375,2.390625,1.87109375,-0.2109375,8.90625,3.578125,2.40625,-1.33398438,2.28125
668,6646429,6946429,0.335388184,-0.464416504,-0.643615723,0.507507324,3.9609375,2.390625,1.87109375,-0.2109375,8.90625,3.578125,0.767578125,-1.62109375,2.29492188
669,6651850,6951850,0.325256348,-0.473205566,-0.640197754,0.510314941,2.37890625,4.89453125,5.85546875,0.296875,9.0078125,3.2734375,0.767578125,-1.62109375,2.29492188
670,6667594,6967594,0.311218262,-0.480041504,-0.638977051,0.514221191,2.37890625,4.89453125,5.85546875,0.296875,9.0078125,3.2734375,-1.08007812,-2.09570312,2.34570312
671,6671353,6971353,0.296142578,-0.485168457,-0.639038086,0.518249512,1.71875,4.17578125,3.875,0.84375,8.9609375,3.296875,-1.08007812,-2.09570312,2.34570312
672,6688905,6988905,0.280456543,-0.490722656,-0.638549805,0.522277832,1.71875,4.17578125,3.875,0.84375,8.9609375,3.296875,-0.86328125,-2.05664062,2.3515625
673,6693048,6993048,0.267150879,-0.497375488,-0.636413574,0.52557373,1.65625,0.59765625,-0.1875,1.40625,8.8203125,3.453125,-0.86328125,-2.05664062,2.3515625
674,6706033,7006033,0.256469727,-0.505493164,-0.632507324,0.527893066,1.65625,0.59765625,-0.1875,1.40625,8.8203125,3.453125,0.49609375,-1.6171875,2.06054688
675,6717020,7017020,0.249389648,-0.513671875,-0.627685547,0.52911377,2.234375,-0.87890625,-2.1015625,1.9375,8.7265625,3.4140625,0.49609375,-1.6171875,2.06054688
676,6724746,7024746,0.244812012,-0.522338867,-0.621826172,0.529724121,2.234375,-0.87890625,-2.1015625,1.9375,8.7265625,3.4140625,1.29882812,-0.958984375,1.46484375
677,6732730,7032730,0.241577148,-0.530456543,-0.615661621,0.530334473,2.234375,0.85546875,-0.12109375,2.3203125,8.71875,3.1953125,1.29882812,-0.958984375,1.46484375
678,6746270,7046270,0.237792969,-0.537231445,-0.610351562,0.531311035,2.234375,0.85546875,-0.12109375,2.3203125,8.71875,3.1953125,0.71484375,-0.853515625,1.44335938
679,6751344,7051344,0.231994629,-0.542785645,-0.606384277,0.532775879,0.91796875,4.8828125,3.4140625,2.640625,8.7109375,2.953125,0.71484375,-0.853515625,1.44335938
680,6768148,7068148,0.224243164,-0.54699707,-0.603759766,0.534729004,0.91796875,4.8828125,3.4140625,2.640625,8.7109375,2.953125,-0.38671875,-1.12304688,1.59960938
681,6773272,7073272,0.215637207,-0.550292969,-0.602111816,0.536804199,0.51953125,4.08203125,2.3046875,2.9609375,8.6328125,2.875,-0.38671875,-1.12304688,1.59960938
682,6786418,7086418,0.207092285,-0.553527832,-0.600463867,0.538635254,0.51953125,4.08203125,2.3046875,2.9609375,8.6328125,2.875,-0.375,-1.0859375,1.43554688
683,6791462,7091462,0.199035645,-0.557128906,-0.598449707,0.540222168,0.4921875,1.984375,0.0078125,3.296875,8.5078125,2.875,-0.375,-1.0859375,1.43554688
684,6807503,7107503,0.192993164,-0.56048584,-0.596252441,0.541442871,0.4921875,1.984375,0.0078125,3.296875,8.5078125,2.875,0.044921875,-0.798828125,1.13085938
685,6811251,7111251,0.188476562,-0.563598633,-0.59387207,0.542358398,0.640625,1.89453125,0.0078125,3.5703125,8.40625,2.8359375,0.044921875,-0.798828125,1.13085938
686,6826552,7126552,0.184997559,-0.566589355,-0.591491699,0.543029785,0.640625,1.89453125,0.0078125,3.5703125,8.40625,2.8359375,0.2421875,-0.49609375,0.75390625
687,6832861,7132861,0.182250977,-0.569030762,-0.589477539,0.543579102,0.24609375,2.8671875,1.2265625,3.7734375,8.3515625,2.765625,0.2421875,-0.49609375,0.75390625
688,6850032,7150032,0.17956543,-0.571105957,-0.58782959,0.544128418,0.24609375,2.8671875,1.2265625,3.7734375,8.3515625,2.765625,0.056640625,-0.388671875,0.568359375
689,6853781,7153781,0.177062988,-0.572631836,-0.586608887,0.544677734,0.14453125,2.9453125,1.59765625,3.9140625,8.3125,2.703125,0.056640625,-0.388671875,0.568359375
690,6865893,7165893,0.174804688,-0.573852539,-0.585449219,0.545288086,0.14453125,2.9453125,1.59765625,3.9140625,8.3125,2.703125,0.013671875,-0.251953125,0.462890625
691,6870946,7170946,0.172973633,-0.574951172,-0.584411621,0.545898438,0.1484375,2.21875,1.16015625,4.0234375,8.2734375,2.6796875,0.013671875,-0.251953125,0.462890625
692,6885052,7185052,0.171813965,-0.575683594,-0.583435059,0.546508789,0.1484375,2.21875,1.16015625,4.0234375,8.2734375,2.6796875,0.052734375,-0.078125,0.283203125
693,6893458,7193458,0.171142578,-0.576049805,-0.582824707,0.54699707,-0.03515625,2.48046875,1.21484375,4.09375,8.2421875,2.6640625,0.052734375,-0.078125,0.283203125
694,6907192,7207192,0.170959473,-0.57598877,-0.582580566,0.547363281,-0.03515625,2.48046875,1.21484375,4.09375,8.2421875,2.6640625,-0.037109375,0.076171875,0.015625
695,6910929,7210929,0.171325684,-0.575500488,-0.582763672,0.547607422,-0.296875,2.671875,0.91015625,4.125,8.2421875,2.6640625,-0.037109375,0.076171875,0.015625
696,6927876,7227876,0.172180176,-0.574584961,-0.583312988,0.547729492,-0.296875,2.671875,0.91015625,4.125,8.2421875,2.6640625,-0.095703125,0.23828125,-0.234375
697,6931615,7231615,0.173583984,-0.573242188,-0.58416748,0.547729492,-0.3203125,2.6328125,0.88671875,4.109375,8.2421875,2.6875,-0.095703125,0.23828125,-0.234375
698,6946679,7246679,0.175537109,-0.571472168,-0.585449219,0.547607422,-0.3203125,2.6328125,0.88671875,4.109375,8.2421875,2.6875,-0.14453125,0.39453125,-0.49609375
699,6952226,7252226,0.177856445,-0.569335938,-0.587036133,0.547302246,-0.46484375,3.25390625,1.2578125,4.0234375,8.2734375,2.734375,-0.14453125,0.39453125,-0.49609375
700,6966781,7266781,0.180786133,-0.566467285,-0.589355469,0.546875,-0.46484375,3.25390625,1.2578125,4.0234375,8.2734375,2.734375,-0.310546875,0.5546875,-0.806640625
701,6970511,7270511,0.184082031,-0.563049316,-0.592224121,0.546264648,-0.26171875,3.55078125,1.2890625,3.8984375,8.3203125,2.8203125,-0.310546875,0.5546875,-0.806640625
702,6986607,7286607,0.188110352,-0.558654785,-0.595825195,0.545471191,-0.26171875,3.55078125,1.2890625,3.8984375,8.3203125,2.8203125,-0.517578125,0.763671875,-1.16601562
703,6996601,7296601,0.192321777,-0.553588867,-0.600036621,0.544494629,-0.09765625,4.17578125,1.70703125,3.6953125,8.3828125,2.9375,-0.517578125,0.763671875,-1.16601562
704,7011108,7311108,0.19708252,-0.547607422,-0.605102539,0.543273926,-0.09765625,4.17578125,1.70703125,3.6953125,8.3828125,2.9375,-0.787109375,0.955078125,-1.5546875
705,7015235,7315235,0.202819824,-0.540161133,-0.611206055,0.541809082,0.62890625,4.4921875,1.61328125,3.4296875,8.453125,3.109375,-0.787109375,0.955078125,-1.5546875
706,7025486,7325486,0.209106445,-0.532165527,-0.617492676,0.540161133,0.62890625,4.4921875,1.61328125,3.4296875,8.453125,3.109375,-0.9453125,1.30664062,-2.02148438
707,7035302,7335302,0.216491699,-0.523010254,-0.624450684,0.538269043,1.31640625,4.53515625,1.76953125,3.046875,8.5234375,3.3359375,-0.9453125,1.30664062,-2.02148438
708,7047372,7347372,0.224487305,-0.513061523,-0.631652832,0.536132812,1.31640625,4.53515625,1.76953125,3.046875,8.5234375,3.3359375,-1.06445312,1.63671875,-2.42578125
709,7051107,7351107,0.233154297,-0.502563477,-0.63885498,0.533813477,2.10546875,4.15625,2.15625,2.5625,8.59375,3.6015625,-1.06445312,1.63671875,-2.42578125
710,7066973,7366973,0.243225098,-0.49041748,-0.64666748,0.531188965,2.10546875,4.15625,2.15625,2.5625,8.59375,3.6015625,-1.12890625,1.97460938,-2.734375
711,7077495,7377495,0.253295898,-0.478210449,-0.653991699,0.528564453,2.76171875,4.109375,2.41796875,1.984375,8.640625,3.875,-1.12890625,1.97460938,-2.734375
712,7092454,7392454,0.264282227,-0.46496582,-0.661499023,0.525756836,2.76171875,4.109375,2.41796875,1.984375,8.640625,3.875,-1.125,2.234375,-2.90234375
713,7096926,7396926,0.275817871,-0.451477051,-0.668457031,0.522766113,3.44921875,3.0234375,1.76171875,1.3359375,8.65625,4.1484375,-1.125,2.234375,-2.90234375
714,7107309,7407309,0.288391113,-0.437561035,-0.674865723,0.51953125,3.44921875,3.0234375,1.76171875,1.3359375,8.65625,4.1484375,-0.865234375,2.54101562,-2.98828125
715,7111044,7411044,0.301635742,-0.423583984,-0.680603027,0.516174316,3.9296875,2.15625,1.6796875,0.625,8.640625,4.3828125,-0.865234375,2.54101562,-2.98828125
716,7125312,7425312,0.315612793,-0.409057617,-0.685791016,0.512573242,3.9296875,2.15625,1.6796875,0.625,8.640625,4.3828125,-0.72265625,2.7890625,-3.05078125
717,7133915,7433915,0.329223633,-0.394836426,-0.690368652,0.509033203,3.9296875,2.12109375,2.328125,-0.140625,8.6015625,4.5390625,-0.72265625,2.7890625,-3.05078125
718,7145651,7445651,0.34362793,-0.379455566,-0.694641113,0.505371094,3.9296875,2.12109375,2.328125,-0.140625,8.6015625,4.5390625,-0.73046875,2.93164062,-2.984375
719,7155632,7455632,0.35748291,-0.364685059,-0.698120117,0.50189209,4.2890625,1.73828125,2.1484375,-0.921875,8.5234375,4.640625,-0.73046875,2.93164062,-2.984375
720,7168786,7468786,0.372253418,-0.349487305,-0.700866699,0.49810791,4.2890625,1.73828125,2.1484375,-0.921875,8.5234375,4.640625,-0.478515625,3.06640625,-2.84570312
721,7172614,7472614,0.386474609,-0.335388184,-0.702636719,0.494445801,4.21875,0.140625,0.81640625,-1.6953125,8.3984375,4.671875,-0.478515625,3.06640625,-2.84570312
722,7188042,7488042,0.401916504,-0.320373535,-0.703796387,0.490356445,4.21875,0.140625,0.81640625,-1.6953125,8.3984375,4.671875,-0.279296875,3.1953125,-2.765625
723,7192504,7492504,0.41619873,-0.30645752,-0.704406738,0.486450195,3.98046875,0.234375,0.71875,-2.453125,8.265625,4.6171875,-0.279296875,3.1953125,-2.765625
724,7206312,7506312,0.430847168,-0.291564941,-0.704772949,0.482299805,3.98046875,0.234375,0.71875,-2.453125,8.265625,4.6171875,-0.353515625,3.1171875,-2.64648438
725,7213587,7513587,0.444274902,-0.277709961,-0.704772949,0.47833252,3.3671875,-0.3984375,0.55859375,-3.1796875,8.09375,4.5078125,-0.353515625,3.1171875,-2.64648438
726,7225443,7525443,0.458129883,-0.26348877,-0.704284668,0.473937988,3.3671875,-0.3984375,0.55859375,-3.1796875,8.09375,4.5078125,-0.19921875,3.03125,-2.5234375
727,7236367,7536367,0.472106934,-0.249633789,-0.703308105,0.469238281,3.203125,-0.9296875,-0.04296875,-3.859375,7.8984375,4.34375,-0.19921875,3.03125,-2.5234375
728,7250762,7550762,0.485290527,-0.236999512,-0.701782227,0.464477539,3.203125,-0.9296875,-0.04296875,-3.859375,7.8984375,4.34375,0.05078125,2.95703125,-2.3828125
729,7252258,7552258,0.498535156,-0.22454834,-0.700012207,0.459350586,2.50390625,-1.234375,-0.16015625,-4.5,7.703125,4.1171875,0.05078125,2.95703125,-2.3828125
730,7267129,7567129,0.510986328,-0.212036133,-0.698242188,0.454223633,2.50390625,-1.234375,-0.16015625,-4.5,7.703125,4.1171875,-0.0859375,2.79882812,-2.375
731,7277259,7577259,0.522094727,-0.199401855,-0.696838379,0.449523926,2.28515625,0.09765625,0.80078125,-5.0859375,7.484375,3.84375,-0.0859375,2.79882812,-2.375
732,7291745,7591745,0.532348633,-0.18572998,-0.695800781,0.444946289,2.28515625,0.09765625,0.80078125,-5.0859375,7.484375,3.84375,-0.572265625,2.54882812,-2.40234375
733,7296236,7596236,0.541931152,-0.171508789,-0.694885254,0.440490723,2.05859375,0.3984375,0.25390625,-5.625,7.21875,3.625,-0.572265625,2.54882812,-2.40234375
734,7305480,7605480,0.551513672,-0.156921387,-0.693847656,0.435668945,2.05859375,0.3984375,0.25390625,-5.625,7.21875,3.625,-0.5625,2.4765625,-2.41601562
735,7316622,7616622,0.561096191,-0.142944336,-0.692443848,0.430358887,2.28515625,0.0703125,-0.5390625,-6.15625,6.8984375,3.421875,-0.5625,2.4765625,-2.41601562
736,7330867,7630867,0.571289062,-0.129760742,-0.690490723,0.424255371,2.28515625,0.0703125,-0.5390625,-6.15625,6.8984375,3.421875,-0.0703125,2.6015625,-2.3984375
737,7335744,7635744,0.581848145,-0.117736816,-0.687927246,0.417541504,2.046875,-1.25,-1.5390625,-6.6484375,6.5703125,3.15625,-0.0703125,2.6015625,-2.3984375
738,7346729,7646729,0.592895508,-0.106384277,-0.684875488,0.41003418,2.046875,-1.25,-1.5390625,-6.6484375,6.5703125,3.15625,0.408203125,2.6484375,-2.35742188
739,7356625,7656625,0.603393555,-0.0961303711,-0.68170166,0.402404785,1.828125,-1.21484375,-1.57421875,-7.1171875,6.265625,2.7734375,0.408203125,2.6484375,-2.35742188
