sample_index,offset_us,timestamp_us,quat_i,quat_j,quat_k,quat_real,linear_accel_x_mps2,linear_accel_y_mps2,linear_accel_z_mps2,gravity_x_mps2,gravity_y_mps2,gravity_z_mps2,gyro_x_radps,gyro_y_radps,gyro_z_radps
0,18322,318322,0.700500488,-0.132629395,-0.641845703,0.282470703,0.44140625,-0.046875,-0.140625,-8.2265625,5.484375,0.046875,-0.228515625,0.33203125,-0.00390625
1,32166,332166,0.701660156,-0.131591797,-0.639770508,0.284729004,0.44140625,-0.046875,-0.140625,-8.2265625,5.484375,0.046875,-0.333984375,0.578125,0.24609375
2,32214,332214,0.702880859,-0.130554199,-0.637512207,0.287109375,0.203125,0.3515625,-0.3828125,-8.1328125,5.609375,-0.1953125,-0.333984375,0.578125,0.24609375
3,32246,332246,0.704284668,-0.129577637,-0.63494873,0.289733887,0.203125,0.3515625,-0.3828125,-8.1328125,5.609375,-0.1953125,-0.357421875,0.6875,0.337890625
4,32294,332294,0.705749512,-0.128662109,-0.632202148,0.292724609,0.4765625,0.375,-0.38671875,-8.1015625,5.6640625,-0.265625,-0.357421875,0.6875,0.337890625
5,32326,332326,0.707275391,-0.127685547,-0.629211426,0.295837402,0.4765625,0.375,-0.38671875,-8.1015625,5.6640625,-0.265625,-0.390625,0.763671875,0.3984375
6,32373,332373,0.708862305,-0.126953125,-0.626220703,0.29876709,0.30078125,0.3125,-0.34765625,-8.0390625,5.7265625,-0.34375,-0.390625,0.763671875,0.3984375
7,32405,332405,0.710571289,-0.126342773,-0.622924805,0.301696777,0.30078125,0.3125,-0.34765625,-8.0390625,5.7265625,-0.34375,-0.27734375,0.751953125,0.431640625
8,44022,344022,0.725646973,-0.130737305,-0.586547852,0.335083008,0.30078125,0.3125,-0.34765625,-8.0390625,5.7265625,-0.34375,-0.00390625,0.400390625,0.55859375
9,49463,349463,0.726379395,-0.131286621,-0.58380127,0.338195801,0.30078125,0.3125,-0.34765625,-8.0390625,5.7265625,-0.34375,-0.353515625,0.568359375,0.607421875
10,53086,353086,0.726989746,-0.131408691,-0.580871582,0.34173584,0.359375,0.23046875,0.0546875,-7.484375,6.3828125,-0.8984375,-0.353515625,0.568359375,0.607421875
11,66635,366635,0.727722168,-0.131591797,-0.577453613,0.34588623,0.359375,0.23046875,0.0546875,-7.484375,6.3828125,-0.8984375,-0.39453125,0.66015625,0.7109375
12,73910,373910,0.72857666,-0.132202148,-0.574035645,0.34954834,0.5234375,-0.03515625,-0.8203125,-7.3828125,6.4921875,-0.9453125,-0.39453125,0.66015625,0.7109375
13,86234,386234,0.729309082,-0.133544922,-0.570800781,0.352722168,0.5234375,-0.03515625,-0.8203125,-7.3828125,6.4921875,-0.9453125,-0.076171875,0.4765625,0.77734375
14,91479,391479,0.730041504,-0.135742188,-0.567932129,0.355163574,-0.046875,-0.2265625,-0.87890625,-7.2734375,6.609375,-1,-0.076171875,0.4765625,0.77734375
15,106054,406054,0.730712891,-0.138427734,-0.565429688,0.356689453,-0.046875,-0.2265625,-0.87890625,-7.2734375,6.609375,-1,0.287109375,0.2421875,0.6953125
16,114573,414573,0.731506348,-0.141479492,-0.563171387,0.35736084,-0.61328125,0.0546875,-0.08984375,-7.1640625,6.7109375,-1.0625,0.287109375,0.2421875,0.6953125
17,126503,426503,0.732543945,-0.144287109,-0.560913086,0.357666016,-0.61328125,0.0546875,-0.08984375,-7.1640625,6.7109375,-1.0625,0.37109375,0.298828125,0.517578125
18,134895,434895,0.733764648,-0.146240234,-0.55847168,0.358215332,-0.203125,0.58984375,1.109375,-7.078125,6.7890625,-1.1484375,0.37109375,0.298828125,0.517578125
19,146208,446208,0.735046387,-0.147338867,-0.555786133,0.359313965,-0.203125,0.58984375,1.109375,-7.078125,6.7890625,-1.1484375,0.0703125,0.537109375,0.412109375
20,153606,453606,0.736328125,-0.147766113,-0.552978516,0.360900879,-0.203125,0.2578125,0.6640625,-7,6.8515625,-1.2421875,0.0703125,0.537109375,0.412109375
21,166291,466291,0.737426758,-0.147888184,-0.550170898,0.362792969,-0.203125,0.2578125,0.6640625,-7,6.8515625,-1.2421875,-0.1171875,0.56640625,0.38671875
22,171531,471531,0.73840332,-0.148071289,-0.547668457,0.364501953,-0.84765625,-0.68359375,-0.22265625,-6.9296875,6.9140625,-1.3125,-0.1171875,0.56640625,0.38671875
23,184671,484671,0.739257812,-0.14855957,-0.545532227,0.365844727,-0.84765625,-0.68359375,-0.22265625,-6.9296875,6.9140625,-1.3125,0.009765625,0.359375,0.322265625
24,196239,496239,0.739990234,-0.149230957,-0.543701172,0.366821289,-0.94921875,-1.0390625,0.0234375,-6.8671875,6.9609375,-1.3671875,0.009765625,0.359375,0.322265625
25,205851,505851,0.740539551,-0.150146484,-0.542053223,0.367736816,-0.94921875,-1.0390625,0.0234375,-6.8671875,6.9609375,-1.3671875,0.048828125,0.25,0.357421875
26,214651,514651,0.740905762,-0.151123047,-0.540466309,0.36895752,-0.5078125,-0.359375,0.37890625,-6.8125,7.0078125,-1.4140625,0.048828125,0.25,0.357421875
27,225801,525801,0.741149902,-0.151855469,-0.538818359,0.370605469,-0.5078125,-0.359375,0.37890625,-6.8125,7.0078125,-1.4140625,-0.14453125,0.296875,0.3984375
28,232562,532562,0.741455078,-0.15234375,-0.536865234,0.372497559,-0.0625,0.125,0.68359375,-6.7578125,7.0625,-1.453125,-0.14453125,0.296875,0.3984375
29,245456,545456,0.741943359,-0.152709961,-0.534790039,0.374389648,-0.0625,0.125,0.68359375,-6.7578125,7.0625,-1.453125,-0.126953125,0.439453125,0.40234375
30,254488,554488,0.742797852,-0.153076172,-0.532348633,0.376098633,0.01953125,0.14453125,0.41015625,-6.6875,7.1171875,-1.484375,-0.126953125,0.439453125,0.40234375
31,265641,565641,0.743835449,-0.153503418,-0.530090332,0.37701416,0.01953125,0.14453125,0.41015625,-6.6875,7.1171875,-1.484375,0.130859375,0.435546875,0.267578125
32,273865,573865,0.745056152,-0.154052734,-0.528015137,0.377380371,-0.5,-0.4765625,0.15625,-6.625,7.1640625,-1.5390625,0.130859375,0.435546875,0.267578125
33,285429,585429,0.746032715,-0.154602051,-0.526306152,0.377563477,-0.5,-0.4765625,0.15625,-6.625,7.1640625,-1.5390625,0.16796875,0.2734375,0.19140625
34,294483,594483,0.746826172,-0.155334473,-0.524841309,0.377685547,-0.6171875,-0.5390625,-0.26953125,-6.5859375,7.1875,-1.609375,0.16796875,0.2734375,0.19140625
35,305633,605633,0.747497559,-0.156188965,-0.5234375,0.377990723,-0.6171875,-0.5390625,-0.26953125,-6.5859375,7.1875,-1.609375,0.119140625,0.21875,0.2734375
36,312432,612432,0.74810791,-0.157104492,-0.521789551,0.378662109,-0.05078125,0.12890625,-0.375,-6.5390625,7.2109375,-1.65625,0.119140625,0.21875,0.2734375
37,325121,625121,0.748779297,-0.157897949,-0.519836426,0.379760742,-0.05078125,0.12890625,-0.375,-6.5390625,7.2109375,-1.65625,0.005859375,0.38671875,0.376953125
38,334465,634465,0.749389648,-0.15838623,-0.517700195,0.381164551,0.4296875,0.47265625,-0.16796875,-6.484375,7.25,-1.7109375,0.005859375,0.38671875,0.376953125
39,345620,645620,0.750061035,-0.158691406,-0.515380859,0.38293457,0.4296875,0.47265625,-0.16796875,-6.484375,7.25,-1.7109375,-0.1328125,0.439453125,0.373046875
40,353877,653877,0.750610352,-0.158996582,-0.513183594,0.384643555,0.015625,-0.04296875,-0.16796875,-6.4140625,7.3046875,-1.75,-0.1328125,0.439453125,0.373046875
41,365440,665440,0.751159668,-0.159606934,-0.511169434,0.385986328,0.015625,-0.04296875,-0.16796875,-6.4140625,7.3046875,-1.75,0.03125,0.32421875,0.3515625
42,375199,675199,0.751831055,-0.160522461,-0.509216309,0.38684082,-0.36328125,-0.203125,-0.08984375,-6.34375,7.3515625,-1.7890625,0.03125,0.32421875,0.3515625
43,386169,686169,0.752685547,-0.161743164,-0.507263184,0.387329102,-0.36328125,-0.203125,-0.08984375,-6.34375,7.3515625,-1.7890625,0.220703125,0.306640625,0.357421875
44,392375,692375,0.753662109,-0.163024902,-0.505126953,0.387573242,-0.1953125,-0.01171875,-0.15234375,-6.28125,7.390625,-1.84375,0.220703125,0.306640625,0.357421875
45,405823,705823,0.754882812,-0.16418457,-0.502868652,0.387756348,-0.1953125,-0.01171875,-0.15234375,-6.28125,7.390625,-1.84375,0.26171875,0.419921875,0.310546875
46,414868,714868,0.756286621,-0.165222168,-0.500366211,0.387817383,0.05078125,0.1796875,-0.140625,-6.21875,7.4296875,-1.9296875,0.26171875,0.419921875,0.310546875
47,425225,725225,0.757751465,-0.166320801,-0.497924805,0.387573242,0.05078125,0.1796875,-0.140625,-6.21875,7.4296875,-1.9296875,0.3515625,0.390625,0.283203125
48,435752,735752,0.759033203,-0.167602539,-0.495849609,0.387268066,-0.38671875,0.078125,0.03515625,-6.1640625,7.453125,-2.03125,0.3515625,0.390625,0.283203125
49,445408,745408,0.760009766,-0.168884277,-0.494018555,0.387023926,-0.38671875,0.078125,0.03515625,-6.1640625,7.453125,-2.03125,0.26171875,0.2421875,0.279296875
50,454883,754883,0.760925293,-0.16998291,-0.492248535,0.387023926,-0.09765625,-0.2421875,0.421875,-6.109375,7.46875,-2.109375,0.26171875,0.2421875,0.279296875
51,464084,764084,0.761962891,-0.170959473,-0.490234375,0.387145996,-0.09765625,-0.2421875,0.421875,-6.109375,7.46875,-2.109375,0.21875,0.34375,0.26171875
52,471772,771772,0.762878418,-0.171691895,-0.48840332,0.387329102,-0.34375,-0.53515625,0.15625,-6.0546875,7.4921875,-2.1875,0.21875,0.34375,0.26171875
53,485414,785414,0.76361084,-0.172119141,-0.486755371,0.387695312,-0.34375,-0.53515625,0.15625,-6.0546875,7.4921875,-2.1875,0.0625,0.26953125,0.16796875
54,494866,794866,0.764221191,-0.172424316,-0.485473633,0.388000488,-0.46875,-1.09375,0.28515625,-6.0078125,7.515625,-2.2421875,0.0625,0.26953125,0.16796875
55,505193,805193,0.764831543,-0.172729492,-0.484375,0.388000488,-0.46875,-1.09375,0.28515625,-6.0078125,7.515625,-2.2421875,0.12890625,0.177734375,0.07421875
56,516837,816837,0.765441895,-0.173034668,-0.483520508,0.387756348,-0.8046875,-0.91796875,0.44140625,-5.9765625,7.53125,-2.28125,0.12890625,0.177734375,0.07421875
57,524795,824795,0.766113281,-0.173461914,-0.482788086,0.387207031,-0.8046875,-0.91796875,0.44140625,-5.9765625,7.53125,-2.28125,0.208984375,0.109375,0.04296875
58,534187,834187,0.766662598,-0.17388916,-0.482177734,0.38671875,-0.5546875,-0.56640625,0.48828125,-5.9609375,7.5234375,-2.328125,0.208984375,0.109375,0.04296875
59,545949,845949,0.766967773,-0.174194336,-0.481872559,0.386352539,-0.5546875,-0.56640625,0.48828125,-5.9609375,7.5234375,-2.328125,0.09375,0.021484375,0.025390625
60,551572,851572,0.767089844,-0.174438477,-0.481689453,0.386108398,-0.5546875,-0.59765625,0.7109375,-5.9609375,7.515625,-2.359375,0.09375,0.021484375,0.025390625
61,565316,865316,0.767150879,-0.174621582,-0.481750488,0.385864258,-0.5546875,-0.59765625,0.7109375,-5.9609375,7.515625,-2.359375,0.048828125,-0.025390625,-0.025390625
62,573884,873884,0.767211914,-0.174621582,-0.481933594,0.385559082,-0.5546875,-0.55859375,0.7109375,-5.9609375,7.515625,-2.359375,0.048828125,-0.025390625,-0.025390625
63,583652,883652,0.767089844,-0.174560547,-0.48248291,0.385192871,-0.5546875,-0.55859375,0.7109375,-5.9609375,7.515625,-2.359375,0.021484375,-0.130859375,-0.1015625
64,597962,897962,0.766845703,-0.174499512,-0.483276367,0.38470459,-0.7734375,-0.703125,0.51953125,-5.96875,7.5078125,-2.359375,0.021484375,-0.130859375,-0.1015625
65,604311,904311,0.766418457,-0.174377441,-0.48449707,0.384033203,-0.7734375,-0.703125,0.51953125,-5.96875,7.5078125,-2.359375,0.00390625,-0.283203125,-0.166015625
66,614884,914884,0.765808105,-0.174255371,-0.486083984,0.383300781,-0.8515625,-0.7578125,0.609375,-6.0078125,7.484375,-2.3359375,0.00390625,-0.283203125,-0.166015625
67,625562,925562,0.765014648,-0.174072266,-0.488037109,0.382385254,-0.8515625,-0.7578125,0.609375,-6.0078125,7.484375,-2.3359375,-0.005859375,-0.41796875,-0.265625
68,631890,931890,0.764099121,-0.17376709,-0.490478516,0.381286621,-1.0625,-0.8125,0.79296875,-6.0625,7.4609375,-2.2890625,-0.005859375,-0.41796875,-0.265625
69,644949,944949,0.763061523,-0.173339844,-0.493225098,0.380065918,-1.0625,-0.8125,0.79296875,-6.0625,7.4609375,-2.2890625,-0.03125,-0.58203125,-0.41015625
70,653869,953869,0.761901855,-0.172729492,-0.496398926,0.378479004,-1.1875,-1.34765625,1,-6.1328125,7.421875,-2.2265625,-0.03125,-0.58203125,-0.41015625
71,665706,965706,0.760803223,-0.17199707,-0.49987793,0.376464844,-1.1875,-1.34765625,1,-6.1328125,7.421875,-2.2265625,0.056640625,-0.689453125,-0.5703125
72,674879,974879,0.75958252,-0.171203613,-0.503662109,0.374145508,-1.11328125,-1.58203125,0.8046875,-6.2421875,7.3515625,-2.1484375,0.056640625,-0.689453125,-0.5703125
73,683908,983908,0.758239746,-0.170043945,-0.50793457,0.371704102,-1.11328125,-1.58203125,0.8046875,-6.2421875,7.3515625,-2.1484375,-0.04296875,-0.78515625,-0.712890625
74,694010,994010,0.756530762,-0.168334961,-0.512634277,0.369506836,-1.02734375,-1.07421875,0.671875,-6.3671875,7.265625,-2.0546875,-0.04296875,-0.78515625,-0.712890625
75,703799,1003799,0.754638672,-0.166320801,-0.517456055,0.367614746,-1.02734375,-1.07421875,0.671875,-6.3671875,7.265625,-2.0546875,-0.2890625,-0.896484375,-0.853515625
76,711689,1011689,0.752380371,-0.163879395,-0.522583008,0.365905762,-0.8046875,-0.484375,0.42578125,-6.515625,7.171875,-1.921875,-0.2890625,-0.896484375,-0.853515625
77,723783,1023783,0.749816895,-0.161071777,-0.528259277,0.364318848,-0.8046875,-0.484375,0.42578125,-6.515625,7.171875,-1.921875,-0.4453125,-0.9609375,-0.908203125
78,734032,1034032,0.747314453,-0.158325195,-0.533630371,0.362915039,-0.5625,0.27734375,0.70703125,-6.6796875,7.0625,-1.7421875,-0.4453125,-0.9609375,-0.908203125
79,744968,1044968,0.744750977,-0.155456543,-0.5390625,0.36138916,-0.5625,0.27734375,0.70703125,-6.6796875,7.0625,-1.7421875,-0.4296875,-0.890625,-0.87109375
80,754734,1054734,0.74230957,-0.152587891,-0.544250488,0.359863281,-0.2890625,0.65625,0.703125,-6.8359375,6.953125,-1.546875,-0.4296875,-0.890625,-0.87109375
81,764527,1064527,0.74029541,-0.149963379,-0.548828125,0.358093262,-0.2890625,0.65625,0.703125,-6.8359375,6.953125,-1.546875,-0.275390625,-0.703125,-0.849609375
82,772489,1072489,0.738708496,-0.147277832,-0.553039551,0.356079102,0.1953125,0.41796875,0.078125,-6.9765625,6.84375,-1.3828125,-0.275390625,-0.703125,-0.849609375
83,785517,1085517,0.737487793,-0.144592285,-0.556945801,0.35369873,0.1953125,0.41796875,0.078125,-6.9765625,6.84375,-1.3828125,-0.12890625,-0.576171875,-0.94140625
84,791701,1091701,0.736328125,-0.141723633,-0.560852051,0.351013184,-0.39453125,0.19921875,-0.4609375,-7.1171875,6.71875,-1.265625,-0.12890625,-0.576171875,-0.94140625
85,804739,1104739,0.734924316,-0.138671875,-0.565185547,0.348144531,-0.39453125,0.19921875,-0.4609375,-7.1171875,6.71875,-1.265625,-0.166015625,-0.7109375,-1.04296875
86,813890,1113890,0.733093262,-0.135620117,-0.570068359,0.345275879,-0.97265625,0.5703125,-0.79296875,-7.265625,6.578125,-1.1640625,-0.166015625,-0.7109375,-1.04296875
87,825349,1125349,0.730895996,-0.132629395,-0.575439453,0.342163086,-0.97265625,0.5703125,-0.79296875,-7.265625,6.578125,-1.1640625,-0.169921875,-0.99609375,-1.14648438
88,832483,1132483,0.72833252,-0.129638672,-0.581420898,0.338623047,-1.0390625,0.96484375,-0.14453125,-7.4296875,6.4140625,-1.0078125,-0.169921875,-0.99609375,-1.14648438
89,844938,1144938,0.725708008,-0.12689209,-0.587341309,0.335144043,-1.0390625,0.96484375,-0.14453125,-7.4296875,6.4140625,-1.0078125,-0.15234375,-1.09960938,-1.13671875
90,853870,1153870,0.723022461,-0.124267578,-0.593078613,0.331726074,-0.29296875,0.4765625,0.51953125,-7.6015625,6.25,-0.828125,-0.15234375,-1.09960938,-1.13671875
91,864594,1164594,0.720703125,-0.121826172,-0.598205566,0.328430176,-0.29296875,0.4765625,0.51953125,-7.6015625,6.25,-0.828125,-0.06640625,-0.884765625,-1.00390625
92,873616,1173616,0.71887207,-0.119628906,-0.602722168,0.324951172,0.35546875,-0.5078125,0.26953125,-7.75,6.0859375,-0.65625,-0.06640625,-0.884765625,-1.00390625
93,883764,1183764,0.717529297,-0.118041992,-0.606689453,0.321105957,0.35546875,-0.5078125,0.26953125,-7.75,6.0859375,-0.65625,0.279296875,-0.6875,-0.837890625
94,893887,1193887,0.716491699,-0.117248535,-0.610107422,0.317260742,0.5546875,-0.7421875,-1.29296875,-7.875,5.9375,-0.546875,0.279296875,-0.6875,-0.837890625
95,905183,1205183,0.715515137,-0.116760254,-0.613220215,0.313598633,0.5546875,-0.7421875,-1.29296875,-7.875,5.9375,-0.546875,0.32421875,-0.591796875,-0.66796875
96,912828,1212828,0.714538574,-0.116149902,-0.616271973,0.309997559,0.7265625,0.2265625,-1.2421875,-7.96875,5.8125,-0.484375,0.32421875,-0.591796875,-0.66796875
97,923548,1223548,0.713439941,-0.115478516,-0.619262695,0.306884766,0.7265625,0.2265625,-1.2421875,-7.96875,5.8125,-0.484375,0.181640625,-0.611328125,-0.638671875
98,933872,1233872,0.712097168,-0.114807129,-0.622375488,0.303955078,0.65234375,0.52734375,-1.1875,-8.046875,5.703125,-0.421875,0.181640625,-0.611328125,-0.638671875
99,945501,1245501,0.710388184,-0.114624023,-0.625915527,0.30065918,0.65234375,0.52734375,-1.1875,-8.046875,5.703125,-0.421875,0.345703125,-0.849609375,-0.6171875
100,951686,1251686,0.708496094,-0.115112305,-0.630004883,0.296386719,0.34765625,0.47265625,-1.046875,-8.125,5.6015625,-0.3359375,0.345703125,-0.849609375,-0.6171875
101,964451,1264451,0.706726074,-0.116333008,-0.633972168,0.291625977,0.34765625,0.47265625,-1.046875,-8.125,5.6015625,-0.3359375,0.75390625,-1.00390625,-0.5859375
102,974251,1274251,0.705200195,-0.118286133,-0.637695312,0.286499023,0.28125,0.7734375,-0.7265625,-8.2109375,5.4921875,-0.234375,0.75390625,-1.00390625,-0.5859375
103,984088,1284088,0.703613281,-0.120910645,-0.641540527,0.280456543,0.28125,0.7734375,-0.7265625,-8.2109375,5.4921875,-0.234375,0.98046875,-0.95703125,-0.525390625
104,994651,1294651,0.702270508,-0.123535156,-0.644958496,0.274963379,-0.234375,0.9140625,-0.44921875,-8.2734375,5.390625,-0.1640625,0.98046875,-0.95703125,-0.525390625
105,1003869,1303869,0.700866699,-0.126037598,-0.648071289,0.269958496,-0.234375,0.9140625,-0.44921875,-8.2734375,5.390625,-0.1640625,0.783203125,-0.81640625,-0.390625
106,1012807,1312807,0.699707031,-0.128112793,-0.65057373,0.265991211,0.55078125,1.109375,-0.4609375,-8.328125,5.3125,-0.1171875,0.783203125,-0.81640625,-0.390625
107,1025382,1325382,0.698547363,-0.130249023,-0.652832031,0.262390137,0.55078125,1.109375,-0.4609375,-8.328125,5.3125,-0.1171875,0.583984375,-0.58984375,-0.197265625
108,1031708,1331708,0.697509766,-0.132202148,-0.654724121,0.259643555,1.00390625,0.6171875,-0.890625,-8.359375,5.265625,-0.0703125,0.583984375,-0.58984375,-0.197265625
109,1043743,1343743,0.696350098,-0.134277344,-0.656433105,0.257141113,1.00390625,0.6171875,-0.890625,-8.359375,5.265625,-0.0703125,0.505859375,-0.5546875,-0.08203125
110,1053872,1353872,0.6953125,-0.136352539,-0.658081055,0.254821777,0.48046875,0.56640625,-0.46875,-8.375,5.2421875,-0.03125,0.505859375,-0.5546875,-0.08203125
111,1064632,1364632,0.694030762,-0.138793945,-0.659912109,0.25213623,0.48046875,0.56640625,-0.46875,-8.375,5.2421875,-0.03125,0.578125,-0.630859375,-0.07421875
112,1073402,1373402,0.692626953,-0.141235352,-0.661865234,0.249389648,-0.046875,0.61328125,-0.27734375,-8.3828125,5.234375,0.0078125,0.578125,-0.630859375,-0.07421875
113,1083869,1383869,0.691223145,-0.143554688,-0.663879395,0.246704102,-0.046875,0.61328125,-0.27734375,-8.3828125,5.234375,0.0078125,0.525390625,-0.6484375,-0.08984375
114,1092032,1392032,0.689819336,-0.145568848,-0.665771484,0.24432373,0.34375,0.55078125,-0.2109375,-8.390625,5.21875,0.0546875,0.525390625,-0.6484375,-0.08984375
115,1104483,1404483,0.688354492,-0.147705078,-0.667663574,0.241943359,0.34375,0.55078125,-0.2109375,-8.390625,5.21875,0.0546875,0.462890625,-0.56640625,-0.0546875
116,1111802,1411802,0.687072754,-0.149719238,-0.669311523,0.239807129,0.46875,0.3671875,-0.21875,-8.3984375,5.2109375,0.1015625,0.462890625,-0.56640625,-0.0546875
117,1123841,1423841,0.685791016,-0.151794434,-0.670837402,0.237854004,0.46875,0.3671875,-0.21875,-8.3984375,5.2109375,0.1015625,0.412109375,-0.49609375,0.013671875
118,1133869,1433869,0.684692383,-0.153747559,-0.672119141,0.23626709,0.734375,0.14453125,-0.1875,-8.3984375,5.203125,0.1484375,0.412109375,-0.49609375,0.013671875
119,1144617,1444617,0.68347168,-0.156066895,-0.673461914,0.234436035,0.734375,0.14453125,-0.1875,-8.3984375,5.203125,0.1484375,0.455078125,-0.513671875,0.060546875
120,1152494,1452494,0.682189941,-0.15838623,-0.674804688,0.232727051,0.3828125,-0.0234375,-0.10546875,-8.390625,5.21875,0.1796875,0.455078125,-0.513671875,0.060546875
121,1164153,1464153,0.680969238,-0.160461426,-0.676086426,0.231140137,0.3828125,-0.0234375,-0.10546875,-8.390625,5.21875,0.1796875,0.384765625,-0.46484375,0.044921875
122,1173860,1473860,0.679931641,-0.162414551,-0.677185059,0.229736328,0.296875,0.16015625,0.0390625,-8.3828125,5.2265625,0.2265625,0.384765625,-0.46484375,0.044921875
123,1184952,1484952,0.678771973,-0.164489746,-0.678283691,0.22833252,0.296875,0.16015625,0.0390625,-8.3828125,5.2265625,0.2265625,0.3671875,-0.4453125,0.08984375
124,1191733,1491733,0.677612305,-0.166503906,-0.679443359,0.227050781,0.17578125,0.3359375,-0.296875,-8.375,5.2421875,0.2578125,0.3671875,-0.4453125,0.08984375
125,1203770,1503770,0.676452637,-0.168273926,-0.680480957,0.225830078,0.17578125,0.3359375,-0.296875,-8.375,5.2421875,0.2578125,0.306640625,-0.40625,0.072265625
126,1213054,1513054,0.675415039,-0.16998291,-0.68145752,0.22467041,0.16796875,0.359375,-0.03125,-8.3671875,5.2578125,0.296875,0.306640625,-0.40625,0.072265625
127,1224507,1524507,0.674438477,-0.171569824,-0.682434082,0.223632812,0.16796875,0.359375,-0.03125,-8.3671875,5.2578125,0.296875,0.255859375,-0.33984375,0.06640625
128,1232478,1532478,0.673583984,-0.172912598,-0.683166504,0.22277832,0.296875,0.16015625,0.0234375,-8.34375,5.265625,0.3203125,0.255859375,-0.33984375,0.06640625
129,1246686,1546686,0.672851562,-0.174194336,-0.683837891,0.222045898,0.296875,0.16015625,0.0234375,-8.34375,5.265625,0.3203125,0.20703125,-0.251953125,0.0703125
130,1252489,1552489,0.672119141,-0.175415039,-0.684448242,0.221374512,0.09765625,0.06640625,-0.26953125,-8.3359375,5.28125,0.34375,0.20703125,-0.251953125,0.0703125
131,1265883,1565883,0.671447754,-0.176696777,-0.684997559,0.22076416,0.09765625,0.06640625,-0.26953125,-8.3359375,5.28125,0.34375,0.197265625,-0.240234375,0.095703125
132,1271861,1571861,0.670776367,-0.177856445,-0.685424805,0.220275879,0.3984375,0.08984375,0.05078125,-8.328125,5.296875,0.3671875,0.197265625,-0.240234375,0.095703125
133,1285216,1585216,0.670288086,-0.178955078,-0.685791016,0.219970703,0.3984375,0.08984375,0.05078125,-8.328125,5.296875,0.3671875,0.134765625,-0.154296875,0.1015625
134,1293033,1593033,0.66986084,-0.179748535,-0.686035156,0.219848633,0.3828125,0.21875,-0.0390625,-8.3125,5.3203125,0.3828125,0.134765625,-0.154296875,0.1015625
135,1306263,1606263,0.669555664,-0.180419922,-0.686157227,0.219726562,0.3828125,0.21875,-0.0390625,-8.3125,5.3203125,0.3828125,0.06640625,-0.0703125,0.068359375
136,1314549,1614549,0.669433594,-0.180786133,-0.686218262,0.219665527,0.18359375,0.1640625,-0.1171875,-8.3046875,5.3359375,0.3828125,0.06640625,-0.0703125,0.068359375
137,1326731,1626731,0.669555664,-0.180847168,-0.686157227,0.219665527,0.18359375,0.1640625,-0.1171875,-8.3046875,5.3359375,0.3828125,0.0078125,0.060546875,-0.017578125
138,1332481,1632481,0.66986084,-0.180603027,-0.685852051,0.219604492,0.13671875,-0.02734375,-0.078125,-8.296875,5.3359375,0.3828125,0.0078125,0.060546875,-0.017578125
139,1346250,1646250,0.670471191,-0.180114746,-0.685424805,0.219543457,0.13671875,-0.02734375,-0.078125,-8.296875,5.3359375,0.3828125,-0.033203125,0.1796875,-0.08203125
140,1352200,1652200,0.671142578,-0.179443359,-0.684936523,0.219543457,0.18359375,0.01171875,-0.36328125,-8.3046875,5.3359375,0.359375,-0.033203125,0.1796875,-0.08203125
141,1366455,1666455,0.67199707,-0.178527832,-0.684326172,0.219665527,0.18359375,0.01171875,-0.36328125,-8.3046875,5.3359375,0.359375,-0.08984375,0.251953125,-0.115234375
142,1374878,1674878,0.672851562,-0.177429199,-0.683654785,0.219848633,0.3125,0.140625,-0.25390625,-8.3203125,5.3203125,0.328125,-0.08984375,0.251953125,-0.115234375
143,1385433,1685433,0.673950195,-0.175964355,-0.682861328,0.220336914,0.3125,0.140625,-0.25390625,-8.3203125,5.3203125,0.328125,-0.205078125,0.3515625,-0.13671875
144,1395047,1695047,0.675109863,-0.174255371,-0.681884766,0.220947266,0.51171875,0.2421875,-0.14453125,-8.328125,5.296875,0.296875,-0.205078125,0.3515625,-0.13671875
145,1406191,1706191,0.676513672,-0.172241211,-0.680786133,0.221923828,0.51171875,0.2421875,-0.14453125,-8.328125,5.296875,0.296875,-0.33984375,0.51953125,-0.14453125
146,1412038,1712038,0.678161621,-0.16986084,-0.679321289,0.223144531,0.57421875,0.3828125,-0.22265625,-8.3515625,5.2734375,0.2578125,-0.33984375,0.51953125,-0.14453125
147,1425317,1725317,0.680053711,-0.167114258,-0.677612305,0.224731445,0.57421875,0.3828125,-0.22265625,-8.3515625,5.2734375,0.2578125,-0.462890625,0.697265625,-0.138671875
148,1431743,1731743,0.681884766,-0.164306641,-0.67578125,0.2265625,0.46484375,0.4140625,-0.390625,-8.359375,5.2421875,0.1953125,-0.462890625,0.697265625,-0.138671875
149,1446126,1746126,0.683959961,-0.161071777,-0.67364502,0.229125977,0.46484375,0.4140625,-0.390625,-8.359375,5.2421875,0.1953125,-0.642578125,0.80078125,-0.029296875
150,1452480,1752480,0.685913086,-0.157775879,-0.671386719,0.232177734,0.7109375,0.6484375,-0.51171875,-8.375,5.234375,0.125,-0.642578125,0.80078125,-0.029296875
151,1466264,1766264,0.687805176,-0.15447998,-0.668884277,0.235839844,0.7109375,0.6484375,-0.51171875,-8.375,5.234375,0.125,-0.796875,0.87890625,0.13671875
152,1473872,1773872,0.689758301,-0.151428223,-0.666259766,0.239746094,1.203125,0.375,-0.5546875,-8.3671875,5.2421875,0.0546875,-0.796875,0.87890625,0.13671875
153,1486342,1786342,0.691589355,-0.148925781,-0.663513184,0.243530273,1.203125,0.375,-0.5546875,-8.3671875,5.2421875,0.0546875,-0.646484375,0.845703125,0.265625
154,1492169,1792169,0.693481445,-0.146789551,-0.660583496,0.247192383,0.83203125,0.80078125,-0.67578125,-8.34375,5.2734375,-0.015625,-0.646484375,0.845703125,0.265625
155,1504974,1804974,0.695495605,-0.144897461,-0.657592773,0.250732422,0.83203125,0.80078125,-0.67578125,-8.34375,5.2734375,-0.015625,-0.560546875,0.90625,0.30078125
156,1511904,1811904,0.697509766,-0.142944336,-0.654418945,0.254455566,0.609375,1.015625,-0.4375,-8.3125,5.328125,-0.1015625,-0.560546875,0.90625,0.30078125
157,1536479,1836479,0.699584961,-0.140625,-0.651000977,0.258789062,0.609375,1.015625,-0.4375,-8.3125,5.328125,-0.1015625,-0.775390625,1.01757812,0.375
158,1536527,1836527,0.701660156,-0.138061523,-0.647399902,0.263549805,0.41015625,1,-1.421875,-8.265625,5.3828125,-0.1875,-0.775390625,1.01757812,0.375
159,1545668,1845668,0.703796387,-0.135681152,-0.643432617,0.268798828,0.41015625,1,-1.421875,-8.265625,5.3828125,-0.1875,-0.759765625,1.0625,0.5078125
160,1556676,1856676,0.705749512,-0.133911133,-0.639526367,0.273803711,0.47265625,0.68359375,-1.21484375,-8.2109375,5.46875,-0.28125,-0.759765625,1.0625,0.5078125
161,1566167,1866167,0.707458496,-0.13293457,-0.635681152,0.278869629,0.47265625,0.68359375,-1.21484375,-8.2109375,5.46875,-0.28125,-0.5859375,0.890625,0.71875
162,1572038,1872038,0.70892334,-0.132873535,-0.631958008,0.283630371,0.59375,0.0859375,-0.5546875,-8.140625,5.5703125,-0.3671875,-0.5859375,0.890625,0.71875
163,1584850,1884850,0.710144043,-0.133605957,-0.628356934,0.288146973,0.59375,0.0859375,-0.5546875,-8.140625,5.5703125,-0.3671875,-0.341796875,0.69140625,0.87109375
164,1592126,1892126,0.711181641,-0.134643555,-0.624938965,0.292480469,0.26171875,0.36328125,0.18359375,-8.0390625,5.7109375,-0.453125,-0.341796875,0.69140625,0.87109375
165,1607268,1907268,0.712524414,-0.135803223,-0.62097168,0.297119141,0.26171875,0.36328125,0.18359375,-8.0390625,5.7109375,-0.453125,-0.3203125,0.787109375,0.91015625
166,1612035,1912035,0.713928223,-0.136901855,-0.616882324,0.301574707,-0.125,0.8359375,0.0703125,-7.921875,5.8515625,-0.53125,-0.3203125,0.787109375,0.91015625
167,1625378,1925378,0.715454102,-0.137756348,-0.612854004,0.305847168,-0.125,0.8359375,0.0703125,-7.921875,5.8515625,-0.53125,-0.3046875,0.85546875,0.853515625
168,1639267,1939267,0.717041016,-0.138549805,-0.608703613,0.310119629,-0.125,0.57421875,-0.56640625,-7.8046875,6,-0.625,-0.3046875,0.85546875,0.853515625
169,1646500,1946500,0.718444824,-0.139099121,-0.604553223,0.314697266,-0.125,0.57421875,-0.56640625,-7.8046875,6,-0.625,-0.419921875,0.83984375,0.853515625
170,1652035,1952035,0.719665527,-0.139709473,-0.600463867,0.319335938,0.4453125,0.31640625,-0.85546875,-7.6875,6.140625,-0.71875,-0.419921875,0.83984375,0.853515625
171,1664814,1964814,0.720825195,-0.140563965,-0.596496582,0.323852539,0.4453125,0.31640625,-0.85546875,-7.6875,6.140625,-0.71875,-0.296875,0.75,0.896484375
172,1671740,1971740,0.721801758,-0.141967773,-0.592895508,0.327575684,0.2421875,0.0625,-0.66015625,-7.5625,6.28125,-0.796875,-0.296875,0.75,0.896484375
173,1685813,1985813,0.722839355,-0.143981934,-0.589172363,0.331115723,0.2421875,0.0625,-0.66015625,-7.5625,6.28125,-0.796875,-0.04296875,0.546875,0.865234375
174,1694666,1994666,0.723754883,-0.146118164,-0.585998535,0.33380127,-0.71484375,-0.1171875,0.0234375,-7.4453125,6.421875,-0.8671875,-0.04296875,0.546875,0.865234375
175,1706245,2006245,0.725036621,-0.148620605,-0.582519531,0.33605957,-0.71484375,-0.1171875,0.0234375,-7.4453125,6.421875,-0.8671875,0.2265625,0.544921875,0.77734375
176,1717134,2017134,0.7265625,-0.151306152,-0.578918457,0.33782959,-1.53125,-0.42578125,0.26953125,-7.3203125,6.5390625,-0.9609375,0.2265625,0.544921875,0.77734375
177,1726065,2026065,0.728088379,-0.153808594,-0.575317383,0.339538574,-1.53125,-0.42578125,0.26953125,-7.3203125,6.5390625,-0.9609375,0.205078125,0.580078125,0.74609375
178,1732196,2032196,0.729309082,-0.155700684,-0.571777344,0.34185791,-0.69140625,-0.19140625,-0.3046875,-7.203125,6.6484375,-1.078125,0.205078125,0.580078125,0.74609375
179,1746361,2046361,0.730163574,-0.156860352,-0.56829834,0.345397949,-0.69140625,-0.19140625,-0.3046875,-7.203125,6.6484375,-1.078125,-0.388671875,0.640625,0.79296875
180,1752442,2052442,0.730529785,-0.157470703,-0.564880371,0.349914551,0.1875,0.3828125,-0.1484375,-7.0859375,6.765625,-1.15625,-0.388671875,0.640625,0.79296875
181,1766260,2066260,0.730834961,-0.15802002,-0.561401367,0.354492188,0.1875,0.3828125,-0.1484375,-7.0859375,6.765625,-1.15625,-0.439453125,0.63671875,0.833984375
182,1772184,2072184,0.731262207,-0.158935547,-0.558044434,0.358520508,-0.05078125,0.41015625,0.3046875,-6.9609375,6.890625,-1.1875,-0.439453125,0.63671875,0.833984375
183,1785533,2085533,0.731933594,-0.160400391,-0.554931641,0.361328125,-0.05078125,0.41015625,0.3046875,-6.9609375,6.890625,-1.1875,0.015625,0.486328125,0.68359375
184,1796256,2096256,0.733032227,-0.16217041,-0.551879883,0.362976074,-0.8671875,-0.6171875,0.6953125,-6.8359375,7,-1.234375,0.015625,0.486328125,0.68359375
185,1805995,2105995,0.73449707,-0.164001465,-0.548828125,0.363830566,-0.8671875,-0.6171875,0.6953125,-6.8359375,7,-1.234375,0.322265625,0.490234375,0.48828125
186,1812169,2112169,0.735900879,-0.165588379,-0.545837402,0.364807129,-0.99609375,-1.0390625,0.13671875,-6.7421875,7.078125,-1.328125,0.322265625,0.490234375,0.48828125
187,1825093,2125093,0.737060547,-0.166625977,-0.542724609,0.366638184,-0.99609375,-1.0390625,0.13671875,-6.7421875,7.078125,-1.328125,-0.072265625,0.595703125,0.580078125
188,1831452,2131452,0.737915039,-0.167419434,-0.539550781,0.36920166,-0.01171875,-0.0390625,-0.41015625,-6.65625,7.1484375,-1.4296875,-0.072265625,0.595703125,0.580078125
189,1845274,2145274,0.738708496,-0.168151855,-0.535827637,0.372680664,-0.01171875,-0.0390625,-0.41015625,-6.65625,7.1484375,-1.4296875,-0.298828125,0.677734375,0.720703125
190,1854305,2154305,0.739318848,-0.168701172,-0.532226562,0.376464844,0.37109375,1.0625,-0.05078125,-6.5390625,7.234375,-1.484375,-0.298828125,0.677734375,0.720703125
191,1865168,2165168,0.739868164,-0.169250488,-0.528686523,0.380126953,0.37109375,1.0625,-0.05078125,-6.5390625,7.234375,-1.484375,-0.28125,0.619140625,0.677734375
192,1876188,2176188,0.740478516,-0.16986084,-0.52557373,0.382873535,-0.22265625,0.2265625,0.3046875,-6.40625,7.34375,-1.53125,-0.28125,0.619140625,0.677734375
193,1885850,2185850,0.741455078,-0.170654297,-0.522583008,0.384765625,-0.22265625,0.2265625,0.3046875,-6.40625,7.34375,-1.53125,0.05859375,0.515625,0.443359375
194,1892074,2192074,0.742675781,-0.171508789,-0.519775391,0.385803223,-1.234375,-1.5390625,0.88671875,-6.3125,7.421875,-1.578125,0.05859375,0.515625,0.443359375
195,1905989,2205989,0.74420166,-0.172485352,-0.516906738,0.386291504,-1.234375,-1.5390625,0.88671875,-6.3125,7.421875,-1.578125,0.26953125,0.505859375,0.328125
196,1914577,2214577,0.745544434,-0.173400879,-0.514343262,0.38659668,-1.3515625,-1.4609375,0.13671875,-6.234375,7.4609375,-1.671875,0.26953125,0.505859375,0.328125
197,1925356,2225356,0.746887207,-0.174438477,-0.511779785,0.387084961,-1.3515625,-1.4609375,0.13671875,-6.234375,7.4609375,-1.671875,0.2109375,0.419921875,0.359375
198,1934062,2234062,0.74798584,-0.175537109,-0.509277344,0.387695312,-0.6484375,-0.45703125,-0.6484375,-6.171875,7.4921875,-1.765625,0.2109375,0.419921875,0.359375
199,1946675,2246675,0.748901367,-0.176452637,-0.506896973,0.388671875,-0.6484375,-0.45703125,-0.6484375,-6.171875,7.4921875,-1.765625,0.05859375,0.404296875,0.373046875
200,1955553,2255553,0.749633789,-0.177185059,-0.504699707,0.389770508,-0.48828125,-0.0390625,-0.1953125,-6.1015625,7.53125,-1.8359375,0.05859375,0.404296875,0.373046875
201,1965834,2265834,0.750183105,-0.178039551,-0.502746582,0.390869141,-0.48828125,-0.0390625,-0.1953125,-6.1015625,7.53125,-1.8359375,0.029296875,0.29296875,0.3515625
202,1975335,2275335,0.750732422,-0.178894043,-0.500854492,0.391845703,-0.40625,-0.16015625,0.43359375,-6.03125,7.578125,-1.890625,0.029296875,0.29296875,0.3515625
203,1986526,2286526,0.751525879,-0.1796875,-0.498901367,0.39251709,-0.40625,-0.16015625,0.43359375,-6.03125,7.578125,-1.890625,0.130859375,0.36328125,0.30078125
204,1993525,2293525,0.752502441,-0.180480957,-0.496765137,0.392944336,-0.4296875,-0.390625,0.5546875,-5.96875,7.6171875,-1.9375,0.130859375,0.36328125,0.30078125
205,2006425,2306425,0.753601074,-0.181274414,-0.494628906,0.393127441,-0.4296875,-0.390625,0.5546875,-5.96875,7.6171875,-1.9375,0.24609375,0.3828125,0.228515625
206,2012486,2312486,0.754821777,-0.182006836,-0.492614746,0.393005371,-0.4453125,-0.4140625,0.08984375,-5.9140625,7.640625,-2.0078125,0.24609375,0.3828125,0.228515625
207,2026275,2326275,0.755981445,-0.182861328,-0.490844727,0.392578125,-0.4453125,-0.4140625,0.08984375,-5.9140625,7.640625,-2.0078125,0.31640625,0.265625,0.154296875
208,2034573,2334573,0.757019043,-0.183837891,-0.489440918,0.391845703,-0.953125,-0.5,0.29296875,-5.8671875,7.6484375,-2.09375,0.31640625,0.265625,0.154296875
209,2046502,2346502,0.757873535,-0.184875488,-0.488525391,0.390930176,-0.953125,-0.5,0.29296875,-5.8671875,7.6484375,-2.09375,0.33984375,0.0703125,0.091796875
210,2053952,2353952,0.758483887,-0.18572998,-0.487915039,0.390136719,-0.9765625,-0.66015625,0.58984375,-5.84375,7.65625,-2.1640625,0.33984375,0.0703125,0.091796875
211,2066577,2366577,0.758850098,-0.186035156,-0.487548828,0.389648438,-0.9765625,-0.66015625,0.58984375,-5.84375,7.65625,-2.1640625,0.09375,0.060546875,-0.021484375
212,2073456,2373456,0.759155273,-0.185913086,-0.487304688,0.389404297,-0.6328125,-0.875,1.00390625,-5.84375,7.640625,-2.1953125,0.09375,0.060546875,-0.021484375
213,2086328,2386328,0.759338379,-0.185546875,-0.487365723,0.389160156,-0.6328125,-0.875,1.00390625,-5.84375,7.640625,-2.1953125,0.001953125,0.0078125,-0.1015625
214,2093942,2393942,0.759399414,-0.185241699,-0.487670898,0.388793945,-1.0078125,-0.9453125,0.68359375,-5.8515625,7.6328125,-2.21875,0.001953125,0.0078125,-0.1015625
215,2106241,2406241,0.759216309,-0.185058594,-0.48840332,0.388244629,-1.0078125,-0.9453125,0.68359375,-5.8515625,7.6328125,-2.21875,0.03515625,-0.171875,-0.150390625
216,2114622,2414622,0.759033203,-0.184936523,-0.489379883,0.387512207,-0.79296875,-0.96875,0.5234375,-5.875,7.6171875,-2.2109375,0.03515625,-0.171875,-0.150390625
217,2127472,2427472,0.758728027,-0.184814453,-0.490478516,0.386779785,-0.79296875,-0.96875,0.5234375,-5.875,7.6171875,-2.2109375,0.029296875,-0.220703125,-0.185546875
218,2133997,2433997,0.758361816,-0.184570312,-0.491638184,0.386108398,-0.5546875,-0.8671875,0.5390625,-5.921875,7.59375,-2.1875,0.029296875,-0.220703125,-0.185546875
219,2148088,2448088,0.757751465,-0.184265137,-0.493103027,0.385559082,-0.5546875,-0.8671875,0.5390625,-5.921875,7.59375,-2.1875,-0.068359375,-0.294921875,-0.18359375
220,2151822,2451822,0.757019043,-0.184020996,-0.494689941,0.385131836,-0.5234375,-0.61328125,0.35546875,-5.953125,7.5703125,-2.15625,-0.068359375,-0.294921875,-0.18359375
221,2168282,2468282,0.756164551,-0.183776855,-0.496398926,0.38470459,-0.5234375,-0.61328125,0.35546875,-5.953125,7.5703125,-2.15625,-0.087890625,-0.34765625,-0.18359375
222,2174933,2474933,0.755310059,-0.18359375,-0.49810791,0.384277344,-0.55078125,-0.29296875,0.4140625,-6,7.5546875,-2.1015625,-0.087890625,-0.34765625,-0.18359375
223,2187695,2487695,0.754516602,-0.183349609,-0.499938965,0.383666992,-0.55078125,-0.29296875,0.4140625,-6,7.5546875,-2.1015625,-0.03515625,-0.37109375,-0.20703125
224,2196621,2496621,0.753723145,-0.183227539,-0.50177002,0.3828125,-0.50390625,-0.26953125,0.390625,-6.046875,7.53125,-2.0390625,-0.03515625,-0.37109375,-0.20703125
225,2209289,2509289,0.753051758,-0.183105469,-0.50378418,0.381652832,-0.50390625,-0.26953125,0.390625,-6.046875,7.53125,-2.0390625,0.0703125,-0.3984375,-0.279296875
226,2216811,2516811,0.752441406,-0.182983398,-0.50579834,0.380126953,-0.6484375,-0.3125,0.19140625,-6.09375,7.5,-1.9921875,0.0703125,-0.3984375,-0.279296875
227,2227841,2527841,0.751831055,-0.182861328,-0.508361816,0.378051758,-0.6484375,-0.3125,0.19140625,-6.09375,7.5,-1.9921875,0.16796875,-0.533203125,-0.4296875
228,2231449,2531449,0.751159668,-0.182678223,-0.511108398,0.375671387,-1.18359375,-0.56640625,0.1875,-6.171875,7.4453125,-1.953125,0.16796875,-0.533203125,-0.4296875
229,2247215,2547215,0.750427246,-0.182373047,-0.514587402,0.372497559,-1.18359375,-0.56640625,0.1875,-6.171875,7.4453125,-1.953125,0.3046875,-0.7265625,-0.646484375
230,2252087,2552087,0.749694824,-0.182067871,-0.518554688,0.368652344,-1.57421875,-0.9453125,0.45703125,-6.28125,7.3671875,-1.9140625,0.3046875,-0.7265625,-0.646484375
231,2267307,2567307,0.748901367,-0.181640625,-0.522949219,0.364318848,-1.57421875,-0.9453125,0.45703125,-6.28125,7.3671875,-1.9140625,0.390625,-0.908203125,-0.83984375
232,2276499,2576499,0.747802734,-0.181030273,-0.527709961,0.359863281,-1.47265625,-1.3359375,0.78515625,-6.421875,7.2578125,-1.859375,0.390625,-0.908203125,-0.83984375
233,2286589,2586589,0.746398926,-0.179931641,-0.532714844,0.356018066,-1.47265625,-1.3359375,0.78515625,-6.421875,7.2578125,-1.859375,0.05859375,-0.9609375,-0.89453125
234,2292087,2592087,0.744567871,-0.178100586,-0.537841797,0.353027344,-0.734375,-0.859375,1.15234375,-6.5859375,7.125,-1.765625,0.05859375,-0.9609375,-0.89453125
235,2307011,2607011,0.742370605,-0.17565918,-0.543029785,0.350952148,-0.734375,-0.859375,1.15234375,-6.5859375,7.125,-1.765625,-0.408203125,-0.900390625,-0.880859375
236,2313076,2613076,0.739868164,-0.172485352,-0.548339844,0.349609375,-0.4609375,-0.13671875,1.4609375,-6.7421875,7.015625,-1.6171875,-0.408203125,-0.900390625,-0.880859375
237,2332792,2632792,0.737182617,-0.168823242,-0.553649902,0.348693848,-0.4609375,-0.13671875,1.4609375,-6.7421875,7.015625,-1.6171875,-0.705078125,-0.8515625,-0.939453125
238,2336945,2636945,0.734375,-0.164855957,-0.559020996,0.347839355,-0.640625,0.203125,1.10546875,-6.90625,6.90625,-1.4140625,-0.705078125,-0.8515625,-0.939453125
239,2346712,2646712,0.731689453,-0.160705566,-0.564453125,0.346740723,-0.640625,0.203125,1.10546875,-6.90625,6.90625,-1.4140625,-0.623046875,-0.830078125,-1.0625
240,2355183,2655183,0.729431152,-0.156433105,-0.569641113,0.344909668,-0.59375,0.51953125,0.16796875,-7.0703125,6.78125,-1.203125,-0.623046875,-0.830078125,-1.0625
241,2366685,2666685,0.727783203,-0.151977539,-0.574401855,0.342468262,-0.59375,0.51953125,0.16796875,-7.0703125,6.78125,-1.203125,-0.3671875,-0.595703125,-1.27148438
242,2372209,2672209,0.72644043,-0.147094727,-0.579040527,0.339599609,-0.8046875,0.63671875,-0.34375,-7.2421875,6.625,-1.0390625,-0.3671875,-0.595703125,-1.27148438
243,2386635,2686635,0.724853516,-0.141967773,-0.583984375,0.336730957,-0.8046875,0.63671875,-0.34375,-7.2421875,6.625,-1.0390625,-0.474609375,-0.68359375,-1.36132812
244,2395235,2695235,0.722900391,-0.137023926,-0.588989258,0.334289551,-0.84765625,0.44921875,-0.30078125,-7.4296875,6.4296875,-0.890625,-0.474609375,-0.68359375,-1.36132812
245,2407485,2707485,0.72064209,-0.131774902,-0.594421387,0.331604004,-0.84765625,0.44921875,-0.30078125,-7.4296875,6.4296875,-0.890625,-0.474609375,-0.7421875,-1.32617188
246,2413604,2713604,0.718688965,-0.12701416,-0.59942627,0.328796387,0.11328125,0.33984375,-0.2109375,-7.625,6.234375,-0.7109375,-0.474609375,-0.7421875,-1.32617188
247,2427412,2727412,0.71685791,-0.122314453,-0.604370117,0.325439453,0.11328125,0.33984375,-0.2109375,-7.625,6.234375,-0.7109375,-0.26171875,-0.65234375,-1.27539062
248,2435606,2735606,0.715270996,-0.118225098,-0.608947754,0.321777344,0.73828125,-0.3828125,-0.8203125,-7.7890625,6.0390625,-0.5625,-0.26171875,-0.65234375,-1.27539062
249,2451345,2751345,0.713989258,-0.115112305,-0.61328125,0.317626953,0.73828125,-0.3828125,-0.8203125,-7.7890625,6.0390625,-0.5625,0.1328125,-0.705078125,-1.1953125
250,2452825,2752825,0.712768555,-0.112792969,-0.617553711,0.312927246,0.359375,-0.48828125,-1.51953125,-7.9453125,5.8359375,-0.4375,0.1328125,-0.705078125,-1.1953125
251,2466554,2766554,0.711425781,-0.11114502,-0.622009277,0.307617188,0.359375,-0.48828125,-1.51953125,-7.9453125,5.8359375,-0.4375,0.451171875,-0.814453125,-1.08984375
252,2472279,2772279,0.710266113,-0.110290527,-0.626281738,0.301879883,0.1171875,-0.22265625,-1.375,-8.0859375,5.6484375,-0.3515625,0.451171875,-0.814453125,-1.08984375
253,2484990,2784990,0.70904541,-0.110473633,-0.630615234,0.295532227,0.1171875,-0.22265625,-1.375,-8.0859375,5.6484375,-0.3515625,0.8515625,-0.96875,-0.958984375
254,2495455,2795455,0.707824707,-0.111572266,-0.63482666,0.289123535,0.1640625,-0.08203125,-1.21484375,-8.2109375,5.46875,-0.28125,0.8515625,-0.96875,-0.958984375
255,2505838,2805838,0.706298828,-0.113586426,-0.639282227,0.282043457,0.1640625,-0.08203125,-1.21484375,-8.2109375,5.46875,-0.28125,1.04882812,-1.08203125,-0.76171875
256,2516614,2816614,0.704650879,-0.115905762,-0.643432617,0.27557373,0.15234375,0.6328125,-0.671875,-8.3125,5.328125,-0.2109375,1.04882812,-1.08203125,-0.76171875
257,2524795,2824795,0.702758789,-0.118652344,-0.647766113,0.269165039,0.15234375,0.6328125,-0.671875,-8.3125,5.328125,-0.2109375,0.982421875,-1.12304688,-0.578125
258,2535488,2835488,0.700866699,-0.12109375,-0.651672363,0.26361084,0.296875,1.546875,-0.4375,-8.3828125,5.21875,-0.140625,0.982421875,-1.12304688,-0.578125
259,2545898,2845898,0.698913574,-0.123352051,-0.655395508,0.258422852,0.296875,1.546875,-0.4375,-8.3828125,5.21875,-0.140625,0.732421875,-0.9375,-0.458984375
260,2552822,2852822,0.69708252,-0.125305176,-0.658691406,0.25390625,0.78125,1.83984375,0.08203125,-8.4453125,5.1171875,-0.046875,0.732421875,-0.9375,-0.458984375
261,2566917,2866917,0.695373535,-0.127197266,-0.661682129,0.25,0.78125,1.83984375,0.08203125,-8.4453125,5.1171875,-0.046875,0.626953125,-0.814453125,-0.333984375
262,2572087,2872087,0.693725586,-0.129211426,-0.664428711,0.24621582,0.78125,1.25,-0.33984375,-8.484375,5.0546875,0.03125,0.626953125,-0.814453125,-0.333984375
263,2586505,2886505,0.692077637,-0.131347656,-0.667053223,0.242553711,0.78125,1.25,-0.33984375,-8.484375,5.0546875,0.03125,0.62890625,-0.7578125,-0.267578125
264,2595493,2895493,0.690551758,-0.133178711,-0.669494629,0.239074707,0.23046875,0.83984375,-0.21875,-8.5078125,5.0078125,0.1015625,0.62890625,-0.7578125,-0.267578125
265,2610800,2910800,0.689025879,-0.134887695,-0.67199707,0.235595703,0.23046875,0.83984375,-0.21875,-8.5078125,5.0078125,0.1015625,0.560546875,-0.71484375,-0.3125
266,2614948,2914948,0.687438965,-0.136474609,-0.674499512,0.232055664,-0.00390625,0.35546875,-0.5859375,-8.5390625,4.953125,0.1640625,0.560546875,-0.71484375,-0.3125
267,2626253,2926253,0.68572998,-0.138427734,-0.677124023,0.22833252,-0.00390625,0.35546875,-0.5859375,-8.5390625,4.953125,0.1640625,0.6328125,-0.8046875,-0.275390625
268,2632243,2932243,0.683776855,-0.140686035,-0.67980957,0.22467041,0.0625,-0.24609375,-0.7734375,-8.5703125,4.90625,0.234375,0.6328125,-0.8046875,-0.275390625
269,2646808,2946808,0.681762695,-0.143188477,-0.682495117,0.221069336,0.0625,-0.24609375,-0.7734375,-8.5703125,4.90625,0.234375,0.66796875,-0.85546875,-0.1953125
270,2653613,2953613,0.679748535,-0.145690918,-0.685119629,0.217529297,0.42578125,-0.015625,-0.359375,-8.5859375,4.8671875,0.3203125,0.66796875,-0.85546875,-0.1953125
271,2667154,2967154,0.677856445,-0.148254395,-0.6875,0.214050293,0.42578125,-0.015625,-0.359375,-8.5859375,4.8671875,0.3203125,0.69140625,-0.765625,-0.162109375
272,2675619,2975619,0.676086426,-0.151000977,-0.689758301,0.210571289,0.6328125,0.05078125,-0.62109375,-8.6015625,4.8359375,0.390625,0.69140625,-0.765625,-0.162109375
273,2685733,2985733,0.674316406,-0.153869629,-0.691894531,0.207092285,0.6328125,0.05078125,-0.62109375,-8.6015625,4.8359375,0.390625,0.72265625,-0.751953125,-0.10546875
274,2694764,2994764,0.672729492,-0.156555176,-0.693786621,0.203979492,0.515625,0.4140625,-0.1796875,-8.6015625,4.8203125,0.4453125,0.72265625,-0.751953125,-0.10546875
275,2706435,3006435,0.671142578,-0.159179688,-0.695556641,0.201049805,0.515625,0.4140625,-0.1796875,-8.6015625,4.8203125,0.4453125,0.60546875,-0.591796875,-0.0546875
276,2712414,3012414,0.669677734,-0.161743164,-0.697143555,0.198425293,0.5234375,0.52734375,-0.34765625,-8.609375,4.8203125,0.5,0.60546875,-0.591796875,-0.0546875
277,2726011,3026011,0.668151855,-0.1640625,-0.698669434,0.196228027,0.5234375,0.52734375,-0.34765625,-8.609375,4.8203125,0.5,0.482421875,-0.603515625,0.01171875
278,2738868,3038868,0.666442871,-0.166259766,-0.700378418,0.194274902,0.01953125,0.796875,-0.12890625,-8.6015625,4.8203125,0.546875,0.482421875,-0.603515625,0.01171875
279,2746961,3046961,0.664672852,-0.168151855,-0.702026367,0.192626953,0.01953125,0.796875,-0.12890625,-8.6015625,4.8203125,0.546875,0.328125,-0.595703125,0.029296875
280,2755610,3055610,0.662841797,-0.16986084,-0.703735352,0.191223145,0.31640625,0.7109375,-0.19921875,-8.59375,4.828125,0.6171875,0.328125,-0.595703125,0.029296875
281,2766507,3066507,0.661315918,-0.171142578,-0.705200195,0.189941406,0.31640625,0.7109375,-0.19921875,-8.59375,4.828125,0.6171875,0.234375,-0.490234375,-0.029296875
282,2772218,3072218,0.659851074,-0.172180176,-0.706665039,0.188659668,0.15625,0.59765625,-0.56640625,-8.5859375,4.828125,0.6796875,0.234375,-0.490234375,-0.029296875
283,2784909,3084909,0.658569336,-0.172973633,-0.707946777,0.187561035,0.15625,0.59765625,-0.56640625,-8.5859375,4.828125,0.6796875,0.14453125,-0.38671875,-0.056640625
284,2793818,3093818,0.657470703,-0.173583984,-0.709106445,0.186523438,0.2734375,0.43359375,-0.58203125,-8.5859375,4.8359375,0.734375,0.14453125,-0.38671875,-0.056640625
285,2806187,3106187,0.65637207,-0.174316406,-0.710205078,0.185424805,0.2734375,0.43359375,-0.58203125,-8.5859375,4.8359375,0.734375,0.158203125,-0.375,-0.05859375
286,2812209,3112209,0.655212402,-0.175048828,-0.711364746,0.184387207,0.5,0.14453125,-0.4765625,-8.5859375,4.8203125,0.78125,0.158203125,-0.375,-0.05859375
287,2828020,3128020,0.65423584,-0.17578125,-0.712341309,0.183410645,0.5,0.14453125,-0.4765625,-8.5859375,4.8203125,0.78125,0.1640625,-0.326171875,-0.03125
288,2836621,3136621,0.653320312,-0.176574707,-0.713256836,0.182495117,0.4921875,0.06640625,-0.5234375,-8.578125,4.8203125,0.828125,0.1640625,-0.326171875,-0.03125
289,2850822,3150822,0.65246582,-0.177368164,-0.714050293,0.181640625,0.4921875,0.06640625,-0.5234375,-8.578125,4.8203125,0.828125,0.16796875,-0.263671875,-0.01171875
290,2854593,3154593,0.651733398,-0.178100586,-0.71472168,0.180847168,0.41796875,0.3046875,-0.40234375,-8.578125,4.8125,0.859375,0.16796875,-0.263671875,-0.01171875
291,2865255,3165255,0.651245117,-0.178649902,-0.715209961,0.180236816,0.41796875,0.3046875,-0.40234375,-8.578125,4.8125,0.859375,0.10546875,-0.150390625,-0.009765625
292,2874168,3174168,0.650878906,-0.179016113,-0.715576172,0.179748535,0.41796875,0.48828125,-0.41796875,-8.578125,4.8203125,0.875,0.10546875,-0.150390625,-0.009765625
293,2886219,3186219,0.650634766,-0.179199219,-0.715820312,0.179382324,0.41796875,0.48828125,-0.41796875,-8.578125,4.8203125,0.875,0.04296875,-0.0625,-0.03125
294,2893865,3193865,0.650512695,-0.179199219,-0.715942383,0.179199219,0.33984375,0.52734375,-0.28125,-8.578125,4.8203125,0.890625,0.04296875,-0.0625,-0.03125
295,2905945,3205945,0.65045166,-0.179077148,-0.716064453,0.179077148,0.33984375,0.52734375,-0.28125,-8.578125,4.8203125,0.890625,-0.033203125,-0.0078125,-0.03125
296,2919474,3219474,0.65045166,-0.178833008,-0.716125488,0.179077148,0.33203125,0.3828125,-0.2421875,-8.5703125,4.8125,0.890625,-0.033203125,-0.0078125,-0.03125
297,2930435,3230435,0.650512695,-0.178649902,-0.716125488,0.179138184,0.33203125,0.3828125,-0.2421875,-8.5703125,4.8125,0.890625,-0.03125,0.015625,-0.017578125
298,2934198,3234198,0.65057373,-0.178405762,-0.716125488,0.179199219,0.2578125,0.3046875,-0.203125,-8.5703125,4.8125,0.890625,-0.03125,0.015625,-0.017578125
299,2948043,3248043,0.650756836,-0.178161621,-0.715942383,0.179382324,0.2578125,0.3046875,-0.203125,-8.5703125,4.8125,0.890625,-0.0625,0.087890625,-0.0078125
300,2951769,3251769,0.651062012,-0.17779541,-0.715698242,0.1796875,0.265625,0.45703125,-0.1640625,-8.578125,4.8125,0.890625,-0.0625,0.087890625,-0.0078125
301,2966288,3266288,0.651550293,-0.177246094,-0.715270996,0.180114746,0.265625,0.45703125,-0.1640625,-8.578125,4.8125,0.890625,-0.1015625,0.169921875,0.001953125
302,2972209,3272209,0.652099609,-0.176696777,-0.714782715,0.180664062,0.265625,0.421875,-0.30078125,-8.578125,4.8125,0.875,-0.1015625,0.169921875,0.001953125
303,2987999,3287999,0.652832031,-0.17590332,-0.714111328,0.18145752,0.265625,0.421875,-0.30078125,-8.578125,4.8125,0.875,-0.193359375,0.259765625,0.01171875
304,2995603,3295603,0.653564453,-0.174926758,-0.713439941,0.182373047,0.265625,0.45703125,-0.1953125,-8.578125,4.8125,0.84375,-0.193359375,0.259765625,0.01171875
305,3006670,3306670,0.654541016,-0.173706055,-0.712524414,0.183654785,0.265625,0.45703125,-0.1953125,-8.578125,4.8125,0.84375,-0.283203125,0.34765625,0.02734375
306,3012818,3312818,0.655578613,-0.172424316,-0.711486816,0.185119629,0.30859375,0.49609375,-0.28515625,-8.5859375,4.8125,0.8203125,-0.283203125,0.34765625,0.02734375
307,3027872,3327872,0.656738281,-0.170898438,-0.710266113,0.187011719,0.30859375,0.49609375,-0.28515625,-8.5859375,4.8125,0.8203125,-0.4140625,0.490234375,0.091796875
308,3032667,3332667,0.658081055,-0.169128418,-0.70880127,0.189453125,0.38671875,0.60546875,-0.19921875,-8.5859375,4.8203125,0.7734375,-0.4140625,0.490234375,0.091796875
309,3049504,3349504,0.659729004,-0.166870117,-0.70690918,0.192810059,0.38671875,0.60546875,-0.19921875,-8.5859375,4.8203125,0.7734375,-0.671875,0.72265625,0.216796875
310,3053551,3353551,0.661437988,-0.164611816,-0.704833984,0.196350098,0.83203125,0.58984375,-0.375,-8.5703125,4.8359375,0.71875,-0.671875,0.72265625,0.216796875
311,3067652,3367652,0.663391113,-0.16204834,-0.702392578,0.200683594,0.83203125,0.58984375,-0.375,-8.5703125,4.8359375,0.71875,-0.74609375,0.82421875,0.314453125
312,3077255,3377255,0.665283203,-0.159790039,-0.699951172,0.204833984,0.8515625,0.55078125,-0.62109375,-8.5546875,4.875,0.65625,-0.74609375,0.82421875,0.314453125
313,3090251,3390251,0.667419434,-0.157348633,-0.69708252,0.209411621,0.8515625,0.55078125,-0.62109375,-8.5546875,4.875,0.65625,-0.732421875,0.91015625,0.365234375
314,3094401,3394401,0.669555664,-0.155151367,-0.694152832,0.213806152,0.79296875,0.5703125,-0.58203125,-8.53125,4.9296875,0.578125,-0.732421875,0.91015625,0.365234375
315,3107512,3407512,0.672119141,-0.152832031,-0.690795898,0.218566895,0.79296875,0.5703125,-0.58203125,-8.53125,4.9296875,0.578125,-0.73046875,1.0625,0.41796875
316,3116514,3416514,0.674621582,-0.150695801,-0.687316895,0.223144531,0.69140625,0.73828125,-0.515625,-8.5078125,4.9921875,0.4765625,-0.73046875,1.0625,0.41796875
317,3129634,3429634,0.677368164,-0.148376465,-0.683410645,0.228393555,0.69140625,0.73828125,-0.515625,-8.5078125,4.9921875,0.4765625,-0.8046875,1.1796875,0.53125
318,3133839,3433839,0.679992676,-0.145996094,-0.679382324,0.234008789,0.65234375,0.69921875,-0.78125,-8.46875,5.0703125,0.359375,-0.8046875,1.1796875,0.53125
319,3146884,3446884,0.682495117,-0.143554688,-0.675109863,0.240356445,0.65234375,0.69921875,-0.78125,-8.46875,5.0703125,0.359375,-0.93359375,1.140625,0.65234375
320,3159553,3459553,0.684509277,-0.141662598,-0.671325684,0.246276855,0.4296875,0.52734375,-0.98828125,-8.3984375,5.1640625,0.2578125,-0.93359375,1.140625,0.65234375
321,3170502,3470502,0.686401367,-0.140441895,-0.667419434,0.252380371,0.4296875,0.52734375,-0.98828125,-8.3984375,5.1640625,0.2578125,-0.677734375,0.935546875,0.8125
322,3174653,3474653,0.687988281,-0.140136719,-0.663696289,0.25793457,0.015625,0.40234375,-0.77734375,-8.328125,5.2890625,0.1640625,-0.677734375,0.935546875,0.8125
323,3188972,3488972,0.689575195,-0.140319824,-0.66003418,0.263000488,0.015625,0.40234375,-0.77734375,-8.328125,5.2890625,0.1640625,-0.455078125,0.826171875,0.84765625
324,3192711,3492711,0.691101074,-0.140563965,-0.656433105,0.267700195,0.04296875,0.5703125,-0.2421875,-8.2421875,5.4296875,0.0859375,-0.455078125,0.826171875,0.84765625
325,3209180,3509180,0.693115234,-0.140441895,-0.652099609,0.273193359,0.04296875,0.5703125,-0.2421875,-8.2421875,5.4296875,0.0859375,-0.568359375,1.04101562,0.822265625
326,3213910,3513910,0.69519043,-0.139709473,-0.647766113,0.278564453,-0.08984375,0.88671875,0.203125,-8.1484375,5.5703125,-0.015625,-0.568359375,1.04101562,0.822265625
327,3228014,3528014,0.69744873,-0.138183594,-0.64276123,0.285095215,-0.08984375,0.88671875,0.203125,-8.1484375,5.5703125,-0.015625,-0.86328125,1.234375,0.810546875
328,3236284,3536284,0.699462891,-0.13659668,-0.638122559,0.291320801,0.34375,0.76171875,-0.48828125,-8.046875,5.6953125,-0.125,-0.86328125,1.234375,0.810546875
329,3249103,3549103,0.701416016,-0.135253906,-0.633178711,0.297973633,0.34375,0.76171875,-0.48828125,-8.046875,5.6953125,-0.125,-0.7734375,1.11523438,0.892578125
330,3256403,3556403,0.70300293,-0.134887695,-0.62878418,0.303649902,0.05078125,-0.265625,-1.0859375,-7.9453125,5.84375,-0.21875,-0.7734375,1.11523438,0.892578125
331,3266702,3566702,0.704589844,-0.135864258,-0.624328613,0.30871582,0.05078125,-0.265625,-1.0859375,-7.9453125,5.84375,-0.21875,-0.205078125,0.771484375,0.95703125
332,3273246,3573246,0.705993652,-0.137817383,-0.620361328,0.31262207,-0.44921875,-0.921875,-0.5703125,-7.828125,6,-0.3125,-0.205078125,0.771484375,0.95703125
333,3289027,3589027,0.707397461,-0.140014648,-0.616455078,0.316101074,-0.44921875,-0.921875,-0.5703125,-7.828125,6,-0.3125,-0.0078125,0.712890625,0.935546875
334,3296488,3596488,0.70892334,-0.141784668,-0.612609863,0.319458008,-0.34375,-0.4921875,0.21875,-7.703125,6.1484375,-0.4140625,-0.0078125,0.712890625,0.935546875
335,3307268,3607268,0.710632324,-0.142944336,-0.608093262,0.323669434,-0.34375,-0.4921875,0.21875,-7.703125,6.1484375,-0.4140625,-0.298828125,0.9140625,0.837890625
336,3315504,3615504,0.712341309,-0.143188477,-0.603637695,0.328186035,-0.0859375,0.3984375,-0.28515625,-7.578125,6.2890625,-0.5234375,-0.298828125,0.9140625,0.837890625
337,3330813,3630813,0.713989258,-0.142944336,-0.599060059,0.333068848,-0.0859375,0.3984375,-0.28515625,-7.578125,6.2890625,-0.5234375,-0.513671875,1.015625,0.78515625
338,3334949,3634949,0.715576172,-0.142700195,-0.594543457,0.337768555,-0.73828125,0.390625,-0.57421875,-7.4609375,6.4140625,-0.6171875,-0.513671875,1.015625,0.78515625
339,3347546,3647546,0.717102051,-0.143249512,-0.590454102,0.341491699,-0.73828125,0.390625,-0.57421875,-7.4609375,6.4140625,-0.6171875,-0.107421875,0.7578125,0.740234375
340,3352590,3652590,0.71862793,-0.145019531,-0.586669922,0.343994141,-0.578125,-0.84765625,-0.5859375,-7.3515625,6.5390625,-0.71875,-0.107421875,0.7578125,0.740234375
341,3369501,3669501,0.720153809,-0.147827148,-0.583312988,0.345275879,-0.578125,-0.84765625,-0.5859375,-7.3515625,6.5390625,-0.71875,0.443359375,0.453125,0.740234375
342,3377225,3677225,0.721679688,-0.150939941,-0.58013916,0.346191406,-0.65234375,-0.83203125,0.05859375,-7.2421875,6.640625,-0.828125,0.443359375,0.453125,0.740234375
343,3387241,3687241,0.723205566,-0.153747559,-0.576721191,0.347473145,-0.65234375,-0.83203125,0.05859375,-7.2421875,6.640625,-0.828125,0.271484375,0.5546875,0.7421875
344,3395327,3695327,0.72467041,-0.156005859,-0.572998047,0.349487305,-0.72265625,0.0625,0.3671875,-7.1328125,6.7421875,-0.9453125,0.271484375,0.5546875,0.7421875
345,3407627,3707627,0.726013184,-0.157592773,-0.569213867,0.352294922,-0.72265625,0.0625,0.3671875,-7.1328125,6.7421875,-0.9453125,-0.107421875,0.69921875,0.787109375
346,3415807,3715807,0.727050781,-0.158691406,-0.565185547,0.356018066,-0.3046875,0.91015625,-0.01953125,-7.015625,6.8515625,-1.0546875,-0.107421875,0.69921875,0.787109375
347,3426680,3726680,0.727722168,-0.159240723,-0.561523438,0.360107422,-0.3046875,0.91015625,-0.01953125,-7.015625,6.8515625,-1.0546875,-0.474609375,0.76953125,0.830078125
348,3435277,3735277,0.728393555,-0.159667969,-0.557739258,0.364562988,0.30078125,0.984375,0.30078125,-6.890625,6.96875,-1.109375,-0.474609375,0.76953125,0.830078125
349,3450227,3750227,0.729187012,-0.160644531,-0.553955078,0.368225098,0.30078125,0.984375,0.30078125,-6.890625,6.96875,-1.109375,-0.08203125,0.6015625,0.716796875
350,3455281,3755281,0.730285645,-0.16217041,-0.550720215,0.370178223,-0.67578125,-0.47265625,0.43359375,-6.7578125,7.0859375,-1.1640625,-0.08203125,0.6015625,0.716796875
351,3467543,3767543,0.731750488,-0.16394043,-0.547546387,0.371276855,-0.67578125,-0.47265625,0.43359375,-6.7578125,7.0859375,-1.1640625,0.3046875,0.517578125,0.509765625
352,3476618,3776618,0.733459473,-0.165527344,-0.544250488,0.372070312,-1.390625,-1.48046875,0.56640625,-6.65625,7.171875,-1.2578125,0.3046875,0.517578125,0.509765625
353,3488654,3788654,0.734924316,-0.166503906,-0.54119873,0.373168945,-1.390625,-1.48046875,0.56640625,-6.65625,7.171875,-1.2578125,0.080078125,0.603515625,0.421875
354,3496867,3796867,0.73614502,-0.166992188,-0.538208008,0.374816895,-0.7421875,-0.84375,-0.12890625,-6.578125,7.2265625,-1.3671875,0.080078125,0.603515625,0.421875
355,3506756,3806756,0.736999512,-0.167541504,-0.53515625,0.377258301,-0.7421875,-0.84375,-0.12890625,-6.578125,7.2265625,-1.3671875,-0.197265625,0.541015625,0.552734375
356,3514122,3814122,0.737609863,-0.168029785,-0.532287598,0.379943848,-0.3671875,0.3203125,0.23828125,-6.4921875,7.2890625,-1.4296875,-0.197265625,0.541015625,0.552734375
357,3528385,3828385,0.73828125,-0.168762207,-0.52935791,0.382385254,-0.3671875,0.3203125,0.23828125,-6.4921875,7.2890625,-1.4296875,-0.0703125,0.529296875,0.537109375
358,3536931,3836931,0.739135742,-0.169677734,-0.526672363,0.384033203,-0.8125,-0.10546875,0.66796875,-6.390625,7.3671875,-1.4765625,-0.0703125,0.529296875,0.537109375
359,3546449,3846449,0.740234375,-0.170837402,-0.524108887,0.385009766,-0.8125,-0.10546875,0.66796875,-6.390625,7.3671875,-1.4765625,0.203125,0.375,0.359375
360,3559620,3859620,0.741394043,-0.17199707,-0.521911621,0.385253906,-1.46484375,-1.15625,0.6328125,-6.3125,7.421875,-1.5546875,0.203125,0.375,0.359375
361,3570646,3870646,0.742614746,-0.172851562,-0.519958496,0.385131836,-1.46484375,-1.15625,0.6328125,-6.3125,7.421875,-1.5546875,0.25390625,0.36328125,0.1875
362,3574771,3874771,0.743774414,-0.173339844,-0.518127441,0.385131836,-1.24609375,-1.29296875,0.328125,-6.265625,7.4453125,-1.6328125,0.25390625,0.36328125,0.1875
363,3586533,3886533,0.744567871,-0.173706055,-0.516662598,0.385375977,-1.24609375,-1.29296875,0.328125,-6.265625,7.4453125,-1.6328125,0.0546875,0.236328125,0.158203125
364,3594095,3894095,0.744995117,-0.173950195,-0.51550293,0.385986328,-0.6328125,-0.3125,-0.10546875,-6.2265625,7.4609375,-1.6953125,0.0546875,0.236328125,0.158203125
365,3611916,3911916,0.745300293,-0.17401123,-0.514404297,0.38684082,-0.6328125,-0.3125,-0.10546875,-6.2265625,7.4609375,-1.6953125,-0.087890625,0.22265625,0.1796875
366,3616877,3916877,0.745605469,-0.17401123,-0.513183594,0.387878418,-0.39453125,0.125,0.4921875,-6.1953125,7.484375,-1.71875,-0.087890625,0.22265625,0.1796875
367,3627297,3927297,0.746032715,-0.173950195,-0.511779785,0.388916016,-0.39453125,0.125,0.4921875,-6.1953125,7.484375,-1.71875,-0.103515625,0.318359375,0.169921875
368,3635485,3935485,0.746520996,-0.173522949,-0.510314941,0.390075684,-0.05078125,0.1015625,0.54296875,-6.15625,7.5078125,-1.734375,-0.103515625,0.318359375,0.169921875
369,3649024,3949024,0.747131348,-0.172973633,-0.508850098,0.391174316,-0.05078125,0.1015625,0.54296875,-6.15625,7.5078125,-1.734375,-0.11328125,0.3671875,0.09765625
370,3656861,3956861,0.747741699,-0.172363281,-0.507446289,0.392028809,-0.234375,-0.4609375,0.1171875,-6.125,7.53125,-1.765625,-0.11328125,0.3671875,0.09765625
371,3667864,3967864,0.748352051,-0.171875,-0.506103516,0.39276123,-0.234375,-0.4609375,0.1171875,-6.125,7.53125,-1.765625,-0.03125,0.275390625,0.07421875
372,3673067,3973067,0.748840332,-0.17175293,-0.505126953,0.393127441,-0.56640625,-0.8984375,-0.12890625,-6.1015625,7.546875,-1.7890625,-0.03125,0.275390625,0.07421875
373,3688536,3988536,0.749328613,-0.17175293,-0.504333496,0.393249512,-0.56640625,-0.8984375,-0.12890625,-6.1015625,7.546875,-1.7890625,0.0546875,0.142578125,0.0546875
374,3696483,3996483,0.749694824,-0.17175293,-0.503723145,0.393310547,-0.23046875,-0.8203125,0.1640625,-6.09375,7.546875,-1.8125,0.0546875,0.142578125,0.0546875
375,3706906,4006906,0.750061035,-0.171630859,-0.503173828,0.393371582,-0.23046875,-0.8203125,0.1640625,-6.09375,7.546875,-1.8125,-0.00390625,0.10546875,-0.015625
376,3715479,4015479,0.750305176,-0.171325684,-0.502929688,0.393432617,-0.3515625,-0.67578125,0.453125,-6.0859375,7.5546875,-1.8359375,-0.00390625,0.10546875,-0.015625
377,3730942,4030942,0.750488281,-0.170959473,-0.502929688,0.393249512,-0.3515625,-0.67578125,0.453125,-6.0859375,7.5546875,-1.8359375,0.001953125,0.0234375,-0.099609375
378,3735709,4035709,0.750549316,-0.170593262,-0.503112793,0.392944336,-0.61328125,-0.8984375,0.4609375,-6.09375,7.546875,-1.84375,0.001953125,0.0234375,-0.099609375
379,3747676,4047676,0.750549316,-0.170288086,-0.503601074,0.39251709,-0.61328125,-0.8984375,0.4609375,-6.09375,7.546875,-1.84375,0.025390625,-0.091796875,-0.134765625
380,3752495,4052495,0.750427246,-0.17010498,-0.504272461,0.391906738,-0.625,-0.91796875,0.42578125,-6.1171875,7.53125,-1.84375,0.025390625,-0.091796875,-0.134765625
381,3773315,4073315,0.750244141,-0.170043945,-0.505065918,0.391296387,-0.625,-0.91796875,0.42578125,-6.1171875,7.53125,-1.84375,0.048828125,-0.17578125,-0.12109375
382,3777062,4077062,0.75,-0.17010498,-0.50592041,0.390686035,-0.48828125,-0.62890625,0.4453125,-6.140625,7.5078125,-1.828125,0.048828125,-0.17578125,-0.12109375
383,3787169,4087169,0.749633789,-0.170227051,-0.506896973,0.390014648,-0.48828125,-0.62890625,0.4453125,-6.140625,7.5078125,-1.828125,0.04296875,-0.208984375,-0.12109375
384,3795610,4095610,0.749267578,-0.170288086,-0.507873535,0.389343262,-0.5703125,-0.19140625,0.4296875,-6.171875,7.4921875,-1.8125,0.04296875,-0.208984375,-0.12109375
385,3812213,4112213,0.748840332,-0.170410156,-0.509094238,0.38861084,-0.5703125,-0.19140625,0.4296875,-6.171875,7.4921875,-1.8125,0.052734375,-0.2734375,-0.15625
386,3816373,4116373,0.748413086,-0.170471191,-0.510437012,0.387634277,-0.6171875,-0.12109375,0.40625,-6.203125,7.4609375,-1.7890625,0.052734375,-0.2734375,-0.15625
387,3827679,4127679,0.74798584,-0.170593262,-0.511962891,0.386474609,-0.6171875,-0.12109375,0.40625,-6.203125,7.4609375,-1.7890625,0.1015625,-0.33984375,-0.224609375
388,3832716,4132716,0.747436523,-0.170654297,-0.513671875,0.385131836,-0.76953125,-0.328125,0.64453125,-6.2421875,7.4375,-1.7578125,0.1015625,-0.33984375,-0.224609375
389,3851844,4151844,0.746887207,-0.170654297,-0.515686035,0.383605957,-0.76953125,-0.328125,0.64453125,-6.2421875,7.4375,-1.7578125,0.130859375,-0.447265625,-0.32421875
390,3856014,4156014,0.74621582,-0.170593262,-0.518005371,0.381713867,-0.828125,-0.59375,0.62109375,-6.296875,7.3984375,-1.734375,0.130859375,-0.447265625,-0.32421875
391,3868095,4168095,0.745483398,-0.170471191,-0.520629883,0.379638672,-0.828125,-0.59375,0.62109375,-6.296875,7.3984375,-1.734375,0.1640625,-0.55859375,-0.443359375
392,3876952,4176952,0.744750977,-0.170288086,-0.5234375,0.377319336,-1.01953125,-0.9921875,0.61328125,-6.375,7.3359375,-1.6875,0.1640625,-0.55859375,-0.443359375
393,3888813,4188813,0.743713379,-0.170043945,-0.526916504,0.374633789,-1.01953125,-0.9921875,0.61328125,-6.375,7.3359375,-1.6875,0.158203125,-0.708984375,-0.55859375
394,3898250,4198250,0.742492676,-0.169677734,-0.530517578,0.372070312,-1.078125,-1.03515625,0.51171875,-6.46875,7.265625,-1.625,0.158203125,-0.708984375,-0.55859375
395,3908169,4208169,0.741027832,-0.169067383,-0.534667969,0.369384766,-1.078125,-1.03515625,0.51171875,-6.46875,7.265625,-1.625,0.05859375,-0.849609375,-0.65625
396,3911790,4211790,0.739318848,-0.168212891,-0.5390625,0.366699219,-1.0390625,-0.9140625,0.80859375,-6.5859375,7.1796875,-1.5390625,0.05859375,-0.849609375,-0.65625
397,3930987,4230987,0.737548828,-0.167114258,-0.543762207,0.363891602,-1.0390625,-0.9140625,0.80859375,-6.5859375,7.1796875,-1.5390625,-0.0234375,-0.86328125,-0.74609375
398,3935393,4235393,0.735778809,-0.165710449,-0.548339844,0.36126709,-0.90625,-0.85546875,0.9609375,-6.71875,7.0859375,-1.421875,-0.0234375,-0.86328125,-0.74609375
399,3947408,4247408,0.733886719,-0.164245605,-0.552978516,0.358703613,-0.90625,-0.85546875,0.9609375,-6.71875,7.0859375,-1.421875,-0.078125,-0.876953125,-0.759765625
400,3955479,4255479,0.731811523,-0.162902832,-0.557678223,0.356201172,-0.91796875,-0.44140625,0.68359375,-6.859375,6.9765625,-1.296875,-0.078125,-0.876953125,-0.759765625
401,3969558,4269558,0.729675293,-0.161682129,-0.562438965,0.35369873,-0.91796875,-0.44140625,0.68359375,-6.859375,6.9765625,-1.296875,-0.052734375,-0.91796875,-0.71875
402,3975527,4275527,0.727844238,-0.160583496,-0.566772461,0.351074219,0.00390625,0.37890625,0.41796875,-6.9765625,6.8828125,-1.1484375,-0.052734375,-0.91796875,-0.71875
403,3987487,4287487,0.726318359,-0.159118652,-0.570922852,0.348205566,0.00390625,0.37890625,0.41796875,-6.9765625,6.8828125,-1.1484375,-0.005859375,-0.67578125,-0.77734375
404,3994797,4294797,0.724975586,-0.157043457,-0.574645996,0.345703125,0.359375,0.49609375,0.1171875,-7.1015625,6.765625,-1.0390625,-0.005859375,-0.67578125,-0.77734375
405,4011004,4311004,0.723449707,-0.15423584,-0.578613281,0.34362793,0.359375,0.49609375,0.1171875,-7.1015625,6.765625,-1.0390625,-0.3203125,-0.642578125,-0.89453125
406,4015021,4315021,0.721557617,-0.151245117,-0.583007812,0.341430664,-0.62890625,0.38671875,-0.4609375,-7.2265625,6.6484375,-0.921875,-0.3203125,-0.642578125,-0.89453125
407,4026030,4326030,0.719360352,-0.148620605,-0.588012695,0.338623047,-0.62890625,0.38671875,-0.4609375,-7.2265625,6.6484375,-0.921875,-0.103515625,-0.96484375,-0.986328125
408,4039603,4339603,0.717163086,-0.146911621,-0.593200684,0.334899902,-0.75390625,0.171875,-0.64453125,-7.3671875,6.515625,-0.7734375,-0.103515625,-0.96484375,-0.986328125
409,4052321,4352321,0.715332031,-0.145996094,-0.598144531,0.330505371,-0.75390625,0.171875,-0.64453125,-7.3671875,6.515625,-0.7734375,0.375,-1.01171875,-0.923828125
410,4056496,4356496,0.713623047,-0.145568848,-0.602966309,0.325561523,-0.1484375,-0.0234375,0.09375,-7.515625,6.3671875,-0.6328125,0.375,-1.01171875,-0.923828125
411,4067290,4367290,0.712158203,-0.145202637,-0.607116699,0.321228027,-0.1484375,-0.0234375,0.09375,-7.515625,6.3671875,-0.6328125,0.328125,-0.822265625,-0.751953125
412,4074598,4374598,0.710754395,-0.144836426,-0.610839844,0.317321777,0.46875,0.03125,-0.22265625,-7.6328125,6.234375,-0.546875,0.328125,-0.822265625,-0.751953125
413,4090993,4390993,0.709533691,-0.14465332,-0.614074707,0.313964844,0.46875,0.03125,-0.22265625,-7.6328125,6.234375,-0.546875,0.32421875,-0.728515625,-0.609375
414,4095018,4395018,0.708068848,-0.144897461,-0.617675781,0.310119629,0.5625,-0.00390625,-1.37890625,-7.7265625,6.1171875,-0.4609375,0.32421875,-0.728515625,-0.609375
415,4106011,4406011,0.706359863,-0.145812988,-0.621276855,0.306274414,0.5625,-0.00390625,-1.37890625,-7.7265625,6.1171875,-0.4609375,0.509765625,-0.966796875,-0.490234375
416,4119466,4419466,0.704345703,-0.147460938,-0.625244141,0.302062988,0.1796875,0.19921875,-1.34375,-7.8046875,6.03125,-0.3828125,0.509765625,-0.966796875,-0.490234375
417,4130575,4430575,0.702148438,-0.149658203,-0.629272461,0.297729492,0.1796875,0.19921875,-1.34375,-7.8046875,6.03125,-0.3828125,0.68359375,-1.18554688,-0.41015625
418,4134175,4434175,0.699584961,-0.152282715,-0.633605957,0.293151855,-0.1875,0.92578125,-0.40234375,-7.859375,5.953125,-0.2890625,0.68359375,-1.18554688,-0.41015625
419,4147360,4447360,0.696655273,-0.155334473,-0.638427734,0.288024902,-0.1875,0.92578125,-0.40234375,-7.859375,5.953125,-0.2890625,0.76953125,-1.36132812,-0.3828125
420,4153089,4453089,0.693603516,-0.158630371,-0.643249512,0.282836914,-0.859375,0.99609375,-0.3359375,-7.9140625,5.8828125,-0.1640625,0.76953125,-1.36132812,-0.3828125
421,4171916,4471916,0.690429688,-0.16204834,-0.648071289,0.277587891,-0.859375,0.99609375,-0.3359375,-7.9140625,5.8828125,-0.1640625,0.83203125,-1.40039062,-0.349609375
422,4173398,4473398,0.687438965,-0.165283203,-0.65246582,0.272827148,0.3046875,0.8984375,0.14453125,-7.96875,5.828125,-0.03125,0.83203125,-1.40039062,-0.349609375
423,4188269,4488269,0.684631348,-0.168334961,-0.656311035,0.268676758,0.3046875,0.8984375,0.14453125,-7.96875,5.828125,-0.03125,0.626953125,-1.1171875,-0.185546875
424,4197612,4497612,0.682189941,-0.171081543,-0.659484863,0.265441895,1.02734375,0.9453125,0.06640625,-8,5.78125,0.0859375,0.626953125,-1.1171875,-0.185546875
425,4210995,4510995,0.67980957,-0.174194336,-0.662414551,0.262268066,1.02734375,0.9453125,0.06640625,-8,5.78125,0.0859375,0.583984375,-0.890625,-0.01953125
426,4214752,4514752,0.677734375,-0.177185059,-0.664794922,0.25958252,0.95703125,0.42578125,-0.78515625,-8.0078125,5.765625,0.171875,0.583984375,-0.890625,-0.01953125
427,4227367,4527367,0.675720215,-0.180358887,-0.666870117,0.257202148,0.95703125,0.42578125,-0.78515625,-8.0078125,5.765625,0.171875,0.5625,-0.765625,0.107421875
428,4233354,4533354,0.67376709,-0.18359375,-0.668823242,0.255065918,0.6796875,0.41796875,-1.125,-8,5.7734375,0.2421875,0.5625,-0.765625,0.107421875
429,4250838,4550838,0.671508789,-0.187072754,-0.670898438,0.252929688,0.6796875,0.41796875,-1.125,-8,5.7734375,0.2421875,0.578125,-0.89453125,0.177734375
430,4254578,4554578,0.669006348,-0.190856934,-0.673217773,0.250549316,0.12890625,0.35546875,-0.99609375,-7.984375,5.796875,0.3046875,0.578125,-0.89453125,0.177734375
431,4267174,4567174,0.666503906,-0.195129395,-0.675476074,0.247802734,0.12890625,0.35546875,-0.99609375,-7.984375,5.796875,0.3046875,0.76171875,-0.923828125,0.177734375
432,4275981,4575981,0.664123535,-0.19934082,-0.677612305,0.245056152,0.25,0.59375,-0.53125,-7.953125,5.828125,0.375,0.76171875,-0.923828125,0.177734375
433,4289819,4589819,0.661865234,-0.203308105,-0.679626465,0.242431641,0.25,0.59375,-0.53125,-7.953125,5.828125,0.375,0.6796875,-0.85546875,0.177734375
434,4294860,4594860,0.659606934,-0.20703125,-0.681518555,0.24005127,0.3828125,0.4375,-0.515625,-7.9296875,5.8671875,0.4375,0.6796875,-0.85546875,0.177734375
435,4307497,4607497,0.657104492,-0.210876465,-0.68359375,0.237609863,0.3828125,0.4375,-0.515625,-7.9296875,5.8671875,0.4375,0.595703125,-0.888671875,0.177734375
436,4314533,4614533,0.654541016,-0.214538574,-0.68572998,0.235290527,0.08203125,0.484375,-0.44921875,-7.8984375,5.8984375,0.484375,0.595703125,-0.888671875,0.177734375
437,4332647,4632647,0.651916504,-0.218200684,-0.687866211,0.232971191,0.08203125,0.484375,-0.44921875,-7.8984375,5.8984375,0.484375,0.58203125,-0.890625,0.16015625
438,4336787,4636787,0.649536133,-0.221557617,-0.689697266,0.230895996,0.36328125,0.0625,0.01171875,-7.875,5.9375,0.5625,0.58203125,-0.890625,0.16015625
439,4346077,4646077,0.647277832,-0.225158691,-0.691345215,0.228942871,0.36328125,0.0625,0.01171875,-7.875,5.9375,0.5625,0.529296875,-0.712890625,0.232421875
440,4359945,4659945,0.645263672,-0.22833252,-0.692687988,0.227416992,0.36328125,0.0625,0.18359375,-7.8359375,5.9765625,0.6171875,0.529296875,-0.712890625,0.232421875
441,4370453,4670453,0.643371582,-0.231201172,-0.693847656,0.226196289,0.36328125,0.0625,0.18359375,-7.8359375,5.9765625,0.6171875,0.369140625,-0.54296875,0.2421875
442,4374896,4674896,0.641845703,-0.233581543,-0.694763184,0.225402832,0.71484375,0.25,-0.3203125,-7.8046875,6.015625,0.6640625,0.369140625,-0.54296875,0.2421875
443,4387507,4687507,0.640319824,-0.235717773,-0.695617676,0.224853516,0.71484375,0.25,-0.3203125,-7.8046875,6.015625,0.6640625,0.203125,-0.39453125,0.201171875
444,4393485,4693485,0.639038086,-0.237426758,-0.696350098,0.22442627,0.25390625,0.2109375,-0.32421875,-7.765625,6.0546875,0.703125,0.203125,-0.39453125,0.201171875
445,4410232,4710232,0.638000488,-0.238891602,-0.696899414,0.224060059,0.25390625,0.2109375,-0.32421875,-7.765625,6.0546875,0.703125,0.197265625,-0.28515625,0.158203125
446,4414359,4714359,0.637207031,-0.24029541,-0.69732666,0.223571777,0.15625,-0.27734375,-0.57421875,-7.7421875,6.0859375,0.7265625,0.197265625,-0.28515625,0.158203125
447,4426459,4726459,0.636535645,-0.241821289,-0.697509766,0.223022461,0.15625,-0.27734375,-0.57421875,-7.7421875,6.0859375,0.7265625,0.23046875,-0.1875,0.13671875
448,4440030,4740030,0.636047363,-0.243225098,-0.697631836,0.222595215,0.4765625,-0.30078125,-0.62109375,-7.71875,6.109375,0.734375,0.23046875,-0.1875,0.13671875
449,4452029,4752029,0.635681152,-0.244689941,-0.697631836,0.222229004,0.4765625,-0.30078125,-0.62109375,-7.71875,6.109375,0.734375,0.224609375,-0.107421875,0.16015625
450,4456147,4756147,0.635375977,-0.24597168,-0.697509766,0.222106934,0.72265625,-0.06640625,-0.34765625,-7.6953125,6.140625,0.7265625,0.224609375,-0.107421875,0.16015625
451,4467757,4767757,0.635131836,-0.246887207,-0.69732666,0.222290039,0.72265625,-0.06640625,-0.34765625,-7.6953125,6.140625,0.7265625,0.078125,-0.013671875,0.166015625
452,4474191,4774191,0.635070801,-0.247497559,-0.697021484,0.22265625,0.66015625,0.05859375,-0.14453125,-7.671875,6.171875,0.71875,0.078125,-0.013671875,0.166015625
453,4489816,4789816,0.635131836,-0.24786377,-0.696716309,0.223083496,0.66015625,0.05859375,-0.14453125,-7.671875,6.171875,0.71875,0.009765625,0.064453125,0.1015625
454,4493947,4793947,0.635192871,-0.248046875,-0.696472168,0.223388672,0.1171875,0.03515625,-0.40625,-7.6640625,6.1953125,0.7109375,0.009765625,0.064453125,0.1015625
455,4505541,4805541,0.635314941,-0.248046875,-0.696289062,0.223693848,0.1171875,0.03515625,-0.40625,-7.6640625,6.1953125,0.7109375,-0.02734375,0.044921875,0.01953125
456,4519893,4819893,0.635375977,-0.247924805,-0.696228027,0.223754883,-0.08203125,0.0625,-0.359375,-7.65625,6.203125,0.703125,-0.02734375,0.044921875,0.01953125
457,4532317,4832317,0.635437012,-0.247680664,-0.696289062,0.223815918,-0.08203125,0.0625,-0.359375,-7.65625,6.203125,0.703125,-0.044921875,0.0078125,-0.0390625
458,4536457,4836457,0.635437012,-0.247253418,-0.696350098,0.223876953,0.3359375,0.29296875,-0.12890625,-7.65625,6.203125,0.703125,-0.044921875,0.0078125,-0.0390625
459,4548729,4848729,0.635559082,-0.246520996,-0.696411133,0.224121094,0.3359375,0.29296875,-0.12890625,-7.65625,6.203125,0.703125,-0.16015625,0.072265625,-0.07421875
460,4552480,4852480,0.635803223,-0.245605469,-0.696472168,0.224487305,0.57421875,0.30859375,-0.1015625,-7.6640625,6.1875,0.7109375,-0.16015625,0.072265625,-0.07421875
461,4570629,4870629,0.636230469,-0.24432373,-0.696350098,0.225036621,0.57421875,0.30859375,-0.1015625,-7.6640625,6.1875,0.7109375,-0.21875,0.166015625,-0.109375
462,4575077,4875077,0.63671875,-0.242980957,-0.696166992,0.225524902,0.546875,0.09375,-0.40625,-7.671875,6.171875,0.7109375,-0.21875,0.166015625,-0.109375
463,4585874,4885874,0.637329102,-0.241516113,-0.695983887,0.226013184,0.546875,0.09375,-0.40625,-7.671875,6.171875,0.7109375,-0.22265625,0.2109375,-0.142578125
464,4597221,4897221,0.638061523,-0.239990234,-0.695739746,0.22644043,0.25390625,0.03515625,-0.58984375,-7.6875,6.15625,0.703125,-0.22265625,0.2109375,-0.142578125
465,4610661,4910661,0.63885498,-0.23840332,-0.695373535,0.226928711,0.25390625,0.03515625,-0.58984375,-7.6875,6.15625,0.703125,-0.2421875,0.267578125,-0.16015625
466,4614804,4914804,0.639770508,-0.236633301,-0.694946289,0.227600098,0.27734375,0.1796875,-0.46875,-7.7109375,6.125,0.6953125,-0.2421875,0.267578125,-0.16015625
467,4627430,4927430,0.640869141,-0.234619141,-0.694274902,0.228515625,0.27734375,0.1796875,-0.46875,-7.7109375,6.125,0.6953125,-0.33984375,0.4140625,-0.138671875
468,4634032,4934032,0.642211914,-0.232421875,-0.693359375,0.229858398,0.37890625,0.39453125,-0.4140625,-7.734375,6.1015625,0.6796875,-0.33984375,0.4140625,-0.138671875
469,4650670,4950670,0.643676758,-0.229980469,-0.692138672,0.231689453,0.37890625,0.39453125,-0.4140625,-7.734375,6.1015625,0.6796875,-0.501953125,0.63671875,-0.025390625
470,4654790,4954790,0.645507812,-0.227233887,-0.690490723,0.234436035,0.5859375,0.609375,-0.19140625,-7.75,6.078125,0.6484375,-0.501953125,0.63671875,-0.025390625
471,4665957,4965957,0.647644043,-0.223815918,-0.688354492,0.238037109,0.5859375,0.609375,-0.19140625,-7.75,6.078125,0.6484375,-0.8046875,0.970703125,0.078125
472,4679930,4979930,0.649963379,-0.220092773,-0.685913086,0.242126465,0.546875,0.45703125,-0.375,-7.75,6.078125,0.6015625,-0.8046875,0.970703125,0.078125
473,4690887,4990887,0.652282715,-0.216552734,-0.683410645,0.24609375,0.546875,0.45703125,-0.375,-7.75,6.078125,0.6015625,-0.748046875,0.958984375,0.12109375
474,4695030,4995030,0.65447998,-0.213317871,-0.680969238,0.249938965,0.5078125,0.41015625,-0.6953125,-7.75,6.0859375,0.5390625,-0.748046875,0.958984375,0.12109375
475,4705891,5005891,0.656616211,-0.210266113,-0.678466797,0.253601074,0.5078125,0.41015625,-0.6953125,-7.75,6.0859375,0.5390625,-0.708984375,0.98046875,0.13671875
476,4714489,5014489,0.659057617,-0.20703125,-0.675598145,0.257446289,0.578125,0.5546875,-0.44921875,-7.7421875,6.09375,0.484375,-0.708984375,0.98046875,0.13671875
477,4730333,5030333,0.66192627,-0.203857422,-0.672241211,0.261535645,0.578125,0.5546875,-0.44921875,-7.7421875,6.09375,0.484375,-0.673828125,1.20507812,0.201171875
478,4734469,5034469,0.665039062,-0.200622559,-0.668395996,0.265930176,0.71484375,0.6015625,-0.5078125,-7.7265625,6.125,0.390625,-0.673828125,1.20507812,0.201171875
479,4747073,5047073,0.668212891,-0.197387695,-0.664245605,0.270812988,0.71484375,0.6015625,-0.5078125,-7.7265625,6.125,0.390625,-0.78515625,1.4140625,0.373046875
480,4755224,5055224,0.671386719,-0.194091797,-0.659545898,0.276672363,0.65234375,0.71484375,-0.93359375,-7.703125,6.1640625,0.28125,-0.78515625,1.4140625,0.373046875
481,4770754,5070754,0.674072266,-0.191040039,-0.655029297,0.282897949,0.65234375,0.71484375,-0.93359375,-7.703125,6.1640625,0.28125,-0.9609375,1.34960938,0.587890625
482,4774757,5074757,0.676513672,-0.188232422,-0.650634766,0.2890625,0.66015625,0.76171875,-0.93359375,-7.6328125,6.234375,0.1640625,-0.9609375,1.34960938,0.587890625
483,4786815,5086815,0.678955078,-0.186035156,-0.646179199,0.29473877,0.66015625,0.76171875,-0.93359375,-7.6328125,6.234375,0.1640625,-0.63671875,1.15820312,0.591796875
484,4792541,5092541,0.680969238,-0.184570312,-0.642211914,0.299621582,0.58984375,0.58984375,-1.15234375,-7.5625,6.328125,0.078125,-0.63671875,1.15820312,0.591796875
485,4806226,5106226,0.682861328,-0.183288574,-0.638305664,0.304443359,0.58984375,0.58984375,-1.15234375,-7.5625,6.328125,0.078125,-0.552734375,0.982421875,0.59375
486,4813418,5113418,0.684631348,-0.182006836,-0.634643555,0.308898926,0.2421875,1.03125,-0.64453125,-7.484375,6.421875,-0.0078125,-0.552734375,0.982421875,0.59375
487,4826592,5126592,0.686645508,-0.180541992,-0.630737305,0.313232422,0.2421875,1.03125,-0.64453125,-7.484375,6.421875,-0.0078125,-0.515625,1.10742188,0.478515625
488,4835713,5135713,0.689147949,-0.178771973,-0.626403809,0.317443848,0.171875,1.26171875,-0.71484375,-7.4140625,6.5,-0.09375,-0.515625,1.10742188,0.478515625
489,4849413,5149413,0.692138672,-0.177429199,-0.621582031,0.320983887,0.171875,1.26171875,-0.71484375,-7.4140625,6.5,-0.09375,-0.154296875,1.25585938,0.45703125
490,4853025,5153025,0.695495605,-0.177429199,-0.616821289,0.323120117,-0.01171875,-0.2265625,-1.34765625,-7.34375,6.5703125,-0.2265625,-0.154296875,1.25585938,0.45703125
491,4865270,5165270,0.699279785,-0.179504395,-0.61151123,0.323730469,-0.01171875,-0.2265625,-1.34765625,-7.34375,6.5703125,-0.2265625,0.814453125,0.96484375,0.6171875
492,4877257,5177257,0.702514648,-0.183288574,-0.606811523,0.323486328,-0.3203125,-1.796875,-0.98046875,-7.265625,6.6484375,-0.4375,0.814453125,0.96484375,0.6171875
493,4891018,5191018,0.70526123,-0.188598633,-0.602050781,0.323425293,-0.3203125,-1.796875,-0.98046875,-7.265625,6.6484375,-0.4375,0.900390625,0.546875,1
494,4895342,5195342,0.707092285,-0.193786621,-0.597595215,0.324584961,1.015625,-0.26171875,0.29296875,-7.1484375,6.7578125,-0.6796875,0.900390625,0.546875,1
495,4908294,5208294,0.708190918,-0.197937012,-0.593261719,0.327636719,1.015625,-0.26171875,0.29296875,-7.1484375,6.7578125,-0.6796875,0,0.619140625,1.18164062
496,4917228,5217228,0.708374023,-0.199401855,-0.58972168,0.332702637,0.42578125,2.234375,0.91015625,-6.9765625,6.90625,-0.8359375,0,0.619140625,1.18164062
497,4930829,5230829,0.708068848,-0.198242188,-0.586425781,0.339782715,0.42578125,2.234375,0.91015625,-6.9765625,6.90625,-0.8359375,-1.19335938,0.828125,0.7421875
498,4934955,5234955,0.708007812,-0.195800781,-0.583312988,0.346618652,-0.796875,1.89453125,0.02734375,-6.828125,7.0546875,-0.8359375,-1.19335938,0.828125,0.7421875
499,4948501,5248501,0.708496094,-0.193481445,-0.579833984,0.352661133,-0.796875,1.89453125,0.02734375,-6.828125,7.0546875,-0.8359375,-0.802734375,0.951171875,0.55078125
500,4952255,5252255,0.709533691,-0.191955566,-0.57623291,0.357299805,-0.484375,-0.93359375,0.3046875,-6.71875,7.1640625,-0.8046875,-0.802734375,0.951171875,0.55078125
501,4969665,5269665,0.710998535,-0.191162109,-0.57208252,0.361450195,-0.484375,-0.93359375,0.3046875,-6.71875,7.1640625,-0.8046875,-0.33984375,0.87890625,0.59375
502,4974301,5274301,0.712097168,-0.190917969,-0.568481445,0.36505127,-0.65625,-0.75390625,0.8203125,-6.625,7.25,-0.859375,-0.33984375,0.87890625,0.59375
503,4987844,5287844,0.713195801,-0.190856934,-0.564819336,0.368713379,-0.65625,-0.75390625,0.8203125,-6.625,7.25,-0.859375,-0.2578125,0.775390625,0.59375
504,4996619,5296619,0.714355469,-0.190551758,-0.561035156,0.372314453,-1.1875,0.34765625,0.30859375,-6.515625,7.3359375,-0.921875,-0.2578125,0.775390625,0.59375
505,5009564,5309564,0.715270996,-0.18939209,-0.557250977,0.376831055,-1.1875,0.34765625,0.30859375,-6.515625,7.3359375,-0.921875,-0.75390625,0.97265625,0.599609375
506,5014264,5314264,0.715698242,-0.187194824,-0.553466797,0.382629395,-0.21484375,0.453125,-0.03125,-6.4140625,7.421875,-0.96875,-0.75390625,0.97265625,0.599609375
507,5027371,5327371,0.715759277,-0.184082031,-0.549316406,0.389953613,-0.21484375,0.453125,-0.03125,-6.4140625,7.421875,-0.96875,-1.26171875,1.10546875,0.654296875
508,5036715,5336715,0.715881348,-0.181030273,-0.545288086,0.396728516,0.05078125,0.4609375,-0.6640625,-6.296875,7.53125,-0.9453125,-1.26171875,1.10546875,0.654296875
509,5050269,5350269,0.716552734,-0.178466797,-0.541015625,0.40246582,0.05078125,0.4609375,-0.6640625,-6.296875,7.53125,-0.9453125,-0.677734375,1.04296875,0.521484375
510,5054417,5354417,0.717956543,-0.177124023,-0.536865234,0.406066895,-0.9375,-1.01171875,-0.421875,-6.1875,7.625,-0.921875,-0.677734375,1.04296875,0.521484375
511,5068339,5368339,0.720214844,-0.176635742,-0.532470703,0.408081055,-0.9375,-1.01171875,-0.421875,-6.1875,7.625,-0.921875,0.171875,0.91015625,0.37109375
512,5076609,5376609,0.722595215,-0.176696777,-0.528564453,0.408996582,-1.41015625,-1.87109375,-0.44921875,-6.1015625,7.6796875,-1.0078125,0.171875,0.91015625,0.37109375
513,5090269,5390269,0.724975586,-0.176696777,-0.524536133,0.409973145,-1.41015625,-1.87109375,-0.44921875,-6.1015625,7.6796875,-1.0078125,0.140625,0.79296875,0.322265625
514,5095150,5395150,0.72668457,-0.176513672,-0.521179199,0.411254883,-1.296875,-1.3046875,-0.9609375,-6.0234375,7.7265625,-1.1484375,0.140625,0.79296875,0.322265625
515,5107398,5407398,0.728027344,-0.17590332,-0.518005371,0.413208008,-1.296875,-1.3046875,-0.9609375,-6.0234375,7.7265625,-1.1484375,-0.216796875,0.666015625,0.30859375
516,5112469,5412469,0.728881836,-0.175048828,-0.515136719,0.415588379,-0.171875,-0.34765625,-0.8046875,-5.9609375,7.765625,-1.2265625,-0.216796875,0.666015625,0.30859375
517,5128485,5428485,0.729614258,-0.174255371,-0.512390137,0.41809082,-0.171875,-0.34765625,-0.8046875,-5.9609375,7.765625,-1.2265625,-0.283203125,0.5703125,0.34765625
518,5132210,5432210,0.730163574,-0.17376709,-0.510009766,0.420166016,-0.5078125,-0.16796875,-0.23046875,-5.890625,7.8125,-1.265625,-0.283203125,0.5703125,0.34765625
519,5148709,5448709,0.730957031,-0.173522949,-0.507629395,0.421813965,-0.5078125,-0.16796875,-0.23046875,-5.890625,7.8125,-1.265625,-0.03125,0.498046875,0.26953125
520,5157918,5457918,0.732116699,-0.173522949,-0.505310059,0.422546387,-1.4140625,-0.80859375,0.8828125,-5.828125,7.84375,-1.3046875,-0.03125,0.498046875,0.26953125
521,5170737,5470737,0.733703613,-0.173828125,-0.502868652,0.422546387,-1.4140625,-0.80859375,0.8828125,-5.828125,7.84375,-1.3046875,0.31640625,0.466796875,0.134765625
522,5175207,5475207,0.735534668,-0.174072266,-0.500671387,0.421936035,-1.4609375,-1.4453125,1.07421875,-5.78125,7.8671875,-1.3828125,0.31640625,0.466796875,0.134765625
523,5187454,5487454,0.737548828,-0.174072266,-0.498474121,0.421020508,-1.4609375,-1.4453125,1.07421875,-5.78125,7.8671875,-1.3828125,0.35546875,0.466796875,-0.015625
524,5193805,5493805,0.739318848,-0.173828125,-0.496704102,0.420043945,-1.16796875,-1.21875,0.4921875,-5.765625,7.8671875,-1.4921875,0.35546875,0.466796875,-0.015625
525,5208522,5508522,0.740905762,-0.173461914,-0.495422363,0.419006348,-1.16796875,-1.21875,0.4921875,-5.765625,7.8671875,-1.4921875,0.287109375,0.28515625,-0.12109375
526,5212247,5512247,0.7421875,-0.173278809,-0.494628906,0.417724609,-1.16796875,-1,0.2421875,-5.765625,7.84375,-1.5859375,0.287109375,0.28515625,-0.12109375
527,5228816,5528816,0.743286133,-0.173278809,-0.49432373,0.41607666,-1.16796875,-1,0.2421875,-5.765625,7.84375,-1.5859375,0.31640625,0.0234375,-0.205078125
528,5236613,5536613,0.74395752,-0.173095703,-0.494567871,0.414733887,-0.953125,-0.77734375,0.8125,-5.7890625,7.8125,-1.65625,0.31640625,0.0234375,-0.205078125
529,5250580,5550580,0.74432373,-0.172607422,-0.495117188,0.413574219,-0.953125,-0.77734375,0.8125,-5.7890625,7.8125,-1.65625,0.08984375,-0.048828125,-0.259765625
530,5254734,5554734,0.744689941,-0.171813965,-0.495727539,0.412536621,-0.9140625,-0.546875,1.72265625,-5.828125,7.7734375,-1.6875,0.08984375,-0.048828125,-0.259765625
531,5269048,5569048,0.745117188,-0.171020508,-0.496398926,0.411315918,-0.9140625,-0.546875,1.72265625,-5.828125,7.7734375,-1.6875,0.123046875,-0.0390625,-0.3359375
532,5272782,5572782,0.745483398,-0.170288086,-0.497192383,0.409973145,-0.83203125,-0.81640625,1.234375,-5.875,7.734375,-1.6953125,0.123046875,-0.0390625,-0.3359375
533,5290652,5590652,0.745727539,-0.169921875,-0.498291016,0.40826416,-0.83203125,-0.81640625,1.234375,-5.875,7.734375,-1.6953125,0.220703125,-0.2109375,-0.30078125
534,5294789,5594789,0.745910645,-0.170043945,-0.499511719,0.40637207,-0.5,-1.19140625,0.66796875,-5.9375,7.6875,-1.703125,0.220703125,-0.2109375,-0.30078125
535,5308369,5608369,0.74609375,-0.170532227,-0.500793457,0.404296875,-0.5,-1.19140625,0.66796875,-5.9375,7.6875,-1.703125,0.34375,-0.298828125,-0.220703125
536,5316604,5616604,0.746154785,-0.171264648,-0.501953125,0.40234375,-0.22265625,-0.69140625,0.56640625,-5.984375,7.6484375,-1.71875,0.34375,-0.298828125,-0.220703125
537,5331015,5631015,0.74609375,-0.172241211,-0.503234863,0.400512695,-0.22265625,-0.69140625,0.56640625,-5.984375,7.6484375,-1.71875,0.294921875,-0.36328125,-0.115234375
538,5335169,5635169,0.745666504,-0.173339844,-0.504760742,0.398925781,-0.375,0.53515625,0.26953125,-6.0234375,7.609375,-1.7265625,0.294921875,-0.36328125,-0.115234375
539,5346424,5646424,0.744934082,-0.174499512,-0.506591797,0.397521973,-0.375,0.53515625,0.26953125,-6.0234375,7.609375,-1.7265625,0.17578125,-0.5234375,-0.09375
540,5354422,5654422,0.74407959,-0.175598145,-0.508544922,0.396118164,-0.57421875,0.90234375,0.3671875,-6.0546875,7.5859375,-1.7109375,0.17578125,-0.5234375,-0.09375
541,5368395,5668395,0.743164062,-0.176635742,-0.510681152,0.394592285,-0.57421875,0.90234375,0.3671875,-6.0546875,7.5859375,-1.7109375,0.205078125,-0.552734375,-0.171875
542,5372132,5672132,0.742370605,-0.17755127,-0.513000488,0.39276123,-0.765625,0.19921875,0.8203125,-6.09375,7.5625,-1.6640625,0.205078125,-0.552734375,-0.171875
543,5388293,5688293,0.741577148,-0.178283691,-0.515563965,0.39050293,-0.765625,0.19921875,0.8203125,-6.09375,7.5625,-1.6640625,0.25,-0.58984375,-0.333984375
544,5396613,5696613,0.740844727,-0.178649902,-0.518249512,0.388122559,-1.0859375,-0.48828125,0.703125,-6.15625,7.5234375,-1.625,0.25,-0.58984375,-0.333984375
545,5409675,5709675,0.739990234,-0.178833008,-0.52142334,0.385375977,-1.0859375,-0.48828125,0.703125,-6.15625,7.5234375,-1.625,0.244140625,-0.701171875,-0.5234375
546,5414004,5714004,0.739074707,-0.178833008,-0.524902344,0.382385254,-1.34375,-1.23046875,0.359375,-6.2421875,7.4609375,-1.5859375,0.244140625,-0.701171875,-0.5234375
547,5426589,5726589,0.737976074,-0.178710938,-0.528930664,0.379150391,-1.34375,-1.23046875,0.359375,-6.2421875,7.4609375,-1.5859375,0.201171875,-0.8046875,-0.626953125
548,5433521,5733521,0.736633301,-0.178344727,-0.53302002,0.376037598,-1.2734375,-1.22265625,0.296875,-6.3515625,7.375,-1.5234375,0.201171875,-0.8046875,-0.626953125
549,5448087,5748087,0.735168457,-0.177734375,-0.537414551,0.373046875,-1.2734375,-1.22265625,0.296875,-6.3515625,7.375,-1.5234375,0.091796875,-0.865234375,-0.69140625
550,5455379,5755379,0.733642578,-0.176879883,-0.541625977,0.370239258,-0.640625,-1.13671875,0.5078125,-6.484375,7.2890625,-1.4296875,0.091796875,-0.865234375,-0.69140625
551,5467981,5767981,0.732055664,-0.175537109,-0.546203613,0.367248535,-0.640625,-1.13671875,0.5078125,-6.484375,7.2890625,-1.4296875,-0.0078125,-0.828125,-0.818359375
552,5476983,5776983,0.73059082,-0.17388916,-0.55078125,0.364196777,-0.01171875,-0.98828125,0.484375,-6.6171875,7.1796875,-1.328125,-0.0078125,-0.828125,-0.818359375
553,5490029,5790029,0.729248047,-0.172058105,-0.555175781,0.361083984,-0.01171875,-0.98828125,0.484375,-6.6171875,7.1796875,-1.328125,-0.00390625,-0.7578125,-0.89453125
554,5494165,5794165,0.727966309,-0.170166016,-0.559448242,0.357971191,-0.66796875,-0.640625,0.18359375,-6.765625,7.0625,-1.21875,-0.00390625,-0.7578125,-0.89453125
555,5506705,5806705,0.7265625,-0.168029785,-0.564331055,0.354064941,-0.66796875,-0.640625,0.18359375,-6.765625,7.0625,-1.21875,0.099609375,-0.8515625,-1.06054688
556,5513589,5813589,0.725158691,-0.166015625,-0.569458008,0.349731445,-0.97265625,-0.35546875,-0.15625,-6.921875,6.9296875,-1.109375,0.099609375,-0.8515625,-1.06054688
557,5528988,5828988,0.723449707,-0.164306641,-0.575073242,0.344848633,-0.97265625,-0.35546875,-0.15625,-6.921875,6.9296875,-1.109375,0.23828125,-1.11523438,-1.11914062
558,5532759,5832759,0.721496582,-0.163330078,-0.580688477,0.339904785,-1.09765625,0.3515625,-0.04296875,-7.1015625,6.7578125,-0.9921875,0.23828125,-1.11523438,-1.11914062
559,5546615,5846615,0.719360352,-0.162963867,-0.586730957,0.334289551,-1.09765625,0.3515625,-0.04296875,-7.1015625,6.7578125,-0.9921875,0.474609375,-1.26757812,-0.98046875
560,5559455,5859455,0.717407227,-0.162841797,-0.592346191,0.328613281,-0.08984375,1.2734375,-0.015625,-7.265625,6.6015625,-0.8671875,0.474609375,-1.26757812,-0.98046875
561,5570632,5870632,0.715942383,-0.16217041,-0.596984863,0.323669434,-0.08984375,1.2734375,-0.015625,-7.265625,6.6015625,-0.8671875,0.328125,-0.9140625,-1.0078125
562,5574374,5874374,0.714416504,-0.160583496,-0.60168457,0.319091797,-0.01953125,0.7734375,0.83203125,-7.4140625,6.453125,-0.7578125,0.328125,-0.9140625,-1.0078125
563,5586499,5886499,0.712402344,-0.158752441,-0.606689453,0.315063477,-0.01953125,0.7734375,0.83203125,-7.4140625,6.453125,-0.7578125,0.02734375,-1,-0.939453125
564,5595611,5895611,0.710021973,-0.157592773,-0.611633301,0.311340332,-0.68359375,0.5,0.41015625,-7.5546875,6.3046875,-0.640625,0.02734375,-1,-0.939453125
565,5608527,5908527,0.70703125,-0.157287598,-0.617370605,0.307006836,-0.68359375,0.5,0.41015625,-7.5546875,6.3046875,-0.640625,0.248046875,-1.26367188,-0.74609375
566,5612271,5912271,0.704284668,-0.157470703,-0.622436523,0.302856445,-0.3671875,0.71484375,0.16796875,-7.6796875,6.1640625,-0.4765625,0.248046875,-1.26367188,-0.74609375
567,5628447,5928447,0.701599121,-0.15802002,-0.627502441,0.298400879,-0.3671875,0.71484375,0.16796875,-7.6796875,6.1640625,-0.4765625,0.3828125,-1.14453125,-0.66796875
568,5636933,5936933,0.699279785,-0.158508301,-0.631896973,0.294311523,0.234375,0.796875,0.05859375,-7.78125,6.046875,-0.328125,0.3828125,-1.14453125,-0.66796875
569,5647990,5947990,0.696960449,-0.158935547,-0.636230469,0.290100098,0.234375,0.796875,0.05859375,-7.78125,6.046875,-0.328125,0.384765625,-0.994140625,-0.623046875
570,5653052,5953052,0.694824219,-0.159606934,-0.640319824,0.285827637,0.04296875,0.27734375,-0.87890625,-7.859375,5.953125,-0.1953125,0.384765625,-0.994140625,-0.623046875
571,5667213,5967213,0.692626953,-0.160888672,-0.64440918,0.28125,0.04296875,0.27734375,-0.87890625,-7.859375,5.953125,-0.1953125,0.6015625,-1.08789062,-0.54296875
572,5675409,5975409,0.690429688,-0.162658691,-0.64831543,0.276672363,-0.15625,-0.01171875,-1.37109375,-7.9296875,5.859375,-0.0859375,0.6015625,-1.08789062,-0.54296875
573,5687915,5987915,0.687805176,-0.165405273,-0.652648926,0.27142334,-0.15625,-0.01171875,-1.37109375,-7.9296875,5.859375,-0.0859375,0.802734375,-1.26953125,-0.392578125
574,5693006,5993006,0.684875488,-0.168701172,-0.656921387,0.266296387,-0.16796875,-0.3125,-1.359375,-7.9921875,5.7734375,0.015625,0.802734375,-1.26953125,-0.392578125
575,5706858,6006858,0.681640625,-0.172546387,-0.661315918,0.261230469,-0.16796875,-0.3125,-1.359375,-7.9921875,5.7734375,0.015625,0.884765625,-1.43164062,-0.208984375
576,5722978,6022978,0.678283691,-0.176513672,-0.665466309,0.256713867,0.13671875,0.1484375,-1.17578125,-8.03125,5.734375,0.140625,0.884765625,-1.43164062,-0.208984375
577,5728725,6028725,0.674499512,-0.181091309,-0.669799805,0.252197266,0.13671875,0.1484375,-1.17578125,-8.03125,5.734375,0.140625,0.833984375,-1.44726562,-0.033203125
578,5736035,6036035,0.670898438,-0.185424805,-0.67376709,0.24810791,0.56640625,1.16015625,-0.91796875,-8.0390625,5.71875,0.265625,0.833984375,-1.44726562,-0.033203125
579,5749271,6049271,0.667053223,-0.190124512,-0.677734375,0.24395752,0.56640625,1.16015625,-0.91796875,-8.0390625,5.71875,0.265625,0.826171875,-1.36523438,0.03515625
580,5753006,6053006,0.663696289,-0.194641113,-0.681091309,0.24017334,0.51953125,1.0859375,-0.859375,-8.03125,5.71875,0.3984375,0.826171875,-1.36523438,0.03515625
581,5768305,6068305,0.660400391,-0.199707031,-0.684265137,0.236206055,0.51953125,1.0859375,-0.859375,-8.03125,5.71875,0.3984375,0.921875,-1.18359375,0.138671875
582,5774290,6074290,0.657287598,-0.204772949,-0.687011719,0.23248291,0.4609375,1.0703125,-0.42578125,-8.0078125,5.734375,0.5,0.921875,-1.18359375,0.138671875
583,5788198,6088198,0.654663086,-0.20916748,-0.68927002,0.229187012,0.4609375,1.0703125,-0.42578125,-8.0078125,5.734375,0.5,0.822265625,-0.95703125,0.138671875
584,5796631,6096631,0.652160645,-0.213500977,-0.691345215,0.226196289,0.58984375,0.80078125,-0.42578125,-7.984375,5.7734375,0.578125,0.822265625,-0.95703125,0.138671875
585,5808499,6108499,0.649719238,-0.217346191,-0.69317627,0.223876953,0.58984375,0.80078125,-0.42578125,-7.984375,5.7734375,0.578125,0.5703125,-0.849609375,0.232421875
586,5812803,6112803,0.647216797,-0.220703125,-0.695007324,0.222167969,0.328125,0.26953125,-0.4453125,-7.953125,5.8046875,0.6328125,0.5703125,-0.849609375,0.232421875
587,5829432,6129432,0.64440918,-0.224365234,-0.696960449,0.22052002,0.328125,0.26953125,-0.4453125,-7.953125,5.8046875,0.6328125,0.537109375,-0.826171875,0.27734375
588,5833180,6133180,0.642089844,-0.228027344,-0.698486328,0.218688965,0.6328125,0.1015625,-0.7890625,-7.9140625,5.859375,0.7109375,0.537109375,-0.826171875,0.27734375
589,5848551,6148551,0.639709473,-0.232055664,-0.699951172,0.216674805,0.6328125,0.1015625,-0.7890625,-7.9140625,5.859375,0.7109375,0.599609375,-0.744140625,0.27734375
590,5854938,6154938,0.637695312,-0.235473633,-0.701171875,0.215087891,0.89453125,0.27734375,-0.30078125,-7.8671875,5.9140625,0.7578125,0.599609375,-0.744140625,0.27734375
591,5867040,6167040,0.635620117,-0.238769531,-0.702392578,0.213500977,0.89453125,0.27734375,-0.30078125,-7.8671875,5.9140625,0.7578125,0.458984375,-0.623046875,0.228515625
592,5878934,6178934,0.633605957,-0.241577148,-0.703674316,0.212158203,0.43359375,0.10546875,-0.453125,-7.828125,5.96875,0.796875,0.458984375,-0.623046875,0.228515625
593,5889030,6189030,0.631652832,-0.24407959,-0.704956055,0.2109375,0.43359375,0.10546875,-0.453125,-7.828125,5.96875,0.796875,0.373046875,-0.619140625,0.173828125
594,5895021,6195021,0.629760742,-0.246459961,-0.706176758,0.209594727,0.44140625,-0.0859375,-0.578125,-7.796875,6.0078125,0.84375,0.373046875,-0.619140625,0.173828125
595,5907611,6207611,0.628173828,-0.248657227,-0.707275391,0.208190918,0.44140625,-0.0859375,-0.578125,-7.796875,6.0078125,0.84375,0.33203125,-0.466796875,0.103515625
596,5912640,6212640,0.62677002,-0.250610352,-0.708190918,0.206970215,0.6484375,-0.26171875,-0.546875,-7.7734375,6.03125,0.890625,0.33203125,-0.466796875,0.103515625
597,5928409,6228409,0.625671387,-0.252441406,-0.708862305,0.205688477,0.6484375,-0.26171875,-0.546875,-7.7734375,6.03125,0.890625,0.353515625,-0.361328125,0.064453125
598,5934792,6234792,0.624755859,-0.254150391,-0.709411621,0.204406738,0.5078125,-0.09375,-0.79296875,-7.75,6.0546875,0.90625,0.353515625,-0.361328125,0.064453125
599,5947279,6247279,0.623962402,-0.25579834,-0.709899902,0.203125,0.5078125,-0.09375,-0.79296875,-7.75,6.0546875,0.90625,0.3046875,-0.271484375,0.05078125
600,5961915,6261915,0.623291016,-0.257141113,-0.710327148,0.202026367,0.53125,0.12890625,-0.45703125,-7.734375,6.0625,0.9140625,0.3046875,-0.271484375,0.05078125
601,5967084,6267084,0.622741699,-0.258300781,-0.710693359,0.20111084,0.53125,0.12890625,-0.45703125,-7.734375,6.0625,0.9140625,0.236328125,-0.205078125,0.021484375
602,5976356,6276356,0.622192383,-0.259399414,-0.710998535,0.200195312,0.33203125,0.234375,-0.6953125,-7.7265625,6.0703125,0.921875,0.236328125,-0.205078125,0.021484375
603,5987678,6287678,0.621826172,-0.260253906,-0.711242676,0.199401855,0.33203125,0.234375,-0.6953125,-7.7265625,6.0703125,0.921875,0.177734375,-0.154296875,0.005859375
604,5993665,6293665,0.621520996,-0.260925293,-0.711425781,0.198730469,0.4765625,0.6015625,-0.41796875,-7.71875,6.0859375,0.9140625,0.177734375,-0.154296875,0.005859375
605,6008139,6308139,0.621337891,-0.261291504,-0.711547852,0.198364258,0.4765625,0.6015625,-0.41796875,-7.71875,6.0859375,0.9140625,0.0625,-0.03125,-0.005859375
606,6014805,6314805,0.621398926,-0.261352539,-0.711547852,0.198181152,0.70703125,0.6015625,-0.38671875,-7.71875,6.0859375,0.921875,0.0625,-0.03125,-0.005859375
607,6027421,6327421,0.621643066,-0.261169434,-0.711364746,0.198120117,0.70703125,0.6015625,-0.38671875,-7.71875,6.0859375,0.921875,-0.025390625,0.1015625,-0.041015625
608,6036606,6336606,0.622192383,-0.260742188,-0.71105957,0.198242188,0.70703125,0.03515625,-0.45703125,-7.71875,6.078125,0.9140625,-0.025390625,0.1015625,-0.041015625
609,6051287,6351287,0.62286377,-0.260253906,-0.710632324,0.198364258,0.70703125,0.03515625,-0.45703125,-7.71875,6.078125,0.9140625,-0.037109375,0.19921875,-0.072265625
610,6055661,6355661,0.623718262,-0.259643555,-0.710083008,0.198425293,0.4921875,-0.1875,-0.5859375,-7.734375,6.0703125,0.890625,-0.037109375,0.19921875,-0.072265625
611,6067661,6367661,0.624694824,-0.259033203,-0.709411621,0.198486328,0.4921875,-0.1875,-0.5859375,-7.734375,6.0703125,0.890625,-0.009765625,0.263671875,-0.099609375
612,6073411,6373411,0.625793457,-0.258422852,-0.708618164,0.198486328,0.26953125,-0.0234375,-0.39453125,-7.7421875,6.0625,0.8515625,-0.009765625,0.263671875,-0.099609375
613,6087979,6387979,0.62701416,-0.25769043,-0.707824707,0.198669434,0.26953125,-0.0234375,-0.39453125,-7.7421875,6.0625,0.8515625,-0.048828125,0.3125,-0.08984375
614,6093711,6393711,0.628173828,-0.256774902,-0.706970215,0.198974609,0.27734375,0.296875,-0.23046875,-7.75,6.046875,0.8046875,-0.048828125,0.3125,-0.08984375
615,6107913,6407913,0.629455566,-0.255615234,-0.706176758,0.199523926,0.27734375,0.296875,-0.23046875,-7.75,6.046875,0.8046875,-0.1796875,0.373046875,-0.1171875
616,6116790,6416790,0.630737305,-0.25402832,-0.705322266,0.200256348,0.41796875,0.46484375,-0.0390625,-7.7734375,6.03125,0.765625,-0.1796875,0.373046875,-0.1171875
617,6128668,6428668,0.632080078,-0.252258301,-0.704528809,0.20123291,0.41796875,0.46484375,-0.0390625,-7.7734375,6.03125,0.765625,-0.306640625,0.43359375,-0.134765625
618,6134789,6434789,0.633483887,-0.250244141,-0.703613281,0.202331543,0.39453125,0.3359375,-0.0390625,-7.7890625,6.0078125,0.7265625,-0.306640625,0.43359375,-0.134765625
619,6147690,6447690,0.635131836,-0.247802734,-0.702636719,0.203735352,0.39453125,0.3359375,-0.0390625,-7.7890625,6.0078125,0.7265625,-0.423828125,0.546875,-0.140625
620,6153415,6453415,0.636901855,-0.245178223,-0.701416016,0.205444336,0.37890625,0.0546875,-0.046875,-7.8125,5.984375,0.6953125,-0.423828125,0.546875,-0.140625
621,6168577,6468577,0.63885498,-0.242492676,-0.700012207,0.207458496,0.37890625,0.0546875,-0.046875,-7.8125,5.984375,0.6953125,-0.5078125,0.716796875,-0.08203125
622,6175054,6475054,0.640930176,-0.239685059,-0.698364258,0.209838867,0.32421875,-0.0390625,-0.16015625,-7.8359375,5.9609375,0.65625,-0.5078125,0.716796875,-0.08203125
623,6187062,6487062,0.643432617,-0.236450195,-0.696228027,0.21307373,0.32421875,-0.0390625,-0.16015625,-7.8359375,5.9609375,0.65625,-0.67578125,0.92578125,0.037109375
624,6195686,6495686,0.645935059,-0.233093262,-0.693847656,0.216796875,0.48828125,0.3203125,-0.13671875,-7.84375,5.9453125,0.59375,-0.67578125,0.92578125,0.037109375
625,6207826,6507826,0.648620605,-0.229675293,-0.691101074,0.221130371,0.48828125,0.3203125,-0.13671875,-7.84375,5.9453125,0.59375,-0.830078125,1.12109375,0.205078125
626,6213567,6513567,0.651306152,-0.226257324,-0.688110352,0.226074219,0.6796875,0.4609375,-0.2109375,-7.84375,5.9609375,0.515625,-0.830078125,1.12109375,0.205078125
627,6227514,6527514,0.653991699,-0.222900391,-0.684875488,0.231567383,0.6796875,0.4609375,-0.2109375,-7.84375,5.9609375,0.515625,-0.923828125,1.17773438,0.373046875
628,6233275,6533275,0.656433105,-0.219665527,-0.68157959,0.237121582,0.6171875,0.91796875,-0.484375,-7.8203125,6,0.4453125,-0.923828125,1.17773438,0.373046875
629,6249781,6549781,0.658935547,-0.21661377,-0.678222656,0.242675781,0.6171875,0.91796875,-0.484375,-7.8203125,6,0.4453125,-0.85546875,1.15429688,0.40234375
630,6253852,6553852,0.661315918,-0.213806152,-0.674926758,0.247802734,0.76171875,0.86328125,-0.4765625,-7.7734375,6.0546875,0.359375,-0.85546875,1.15429688,0.40234375
631,6268443,6568443,0.6640625,-0.210632324,-0.671203613,0.253356934,0.76171875,0.86328125,-0.4765625,-7.7734375,6.0546875,0.359375,-0.869140625,1.22851562,0.390625
632,6276618,6576618,0.666748047,-0.20715332,-0.667358398,0.259155273,0.453125,0.92578125,-0.55078125,-7.734375,6.109375,0.28125,-0.869140625,1.22851562,0.390625
633,6290637,6590637,0.669433594,-0.203613281,-0.663513184,0.264831543,0.453125,0.92578125,-0.55078125,-7.734375,6.109375,0.28125,-0.951171875,1.33789062,0.388671875
634,6295526,6595526,0.672058105,-0.200378418,-0.659606934,0.270446777,0.140625,0.83203125,-1.1953125,-7.6875,6.1640625,0.1953125,-0.951171875,1.33789062,0.388671875
635,6307689,6607689,0.674682617,-0.197570801,-0.655273438,0.276489258,0.140625,0.83203125,-1.1953125,-7.6875,6.1640625,0.1953125,-0.78515625,1.22265625,0.5859375
636,6314977,6614977,0.676696777,-0.195922852,-0.651306152,0.281982422,0.19921875,0.29296875,-1.55859375,-7.6328125,6.2421875,0.1015625,-0.78515625,1.22265625,0.5859375
637,6330556,6630556,0.678344727,-0.195129395,-0.647155762,0.287963867,0.19921875,0.29296875,-1.55859375,-7.6328125,6.2421875,0.1015625,-0.607421875,0.962890625,0.876953125
638,6334675,6634675,0.67956543,-0.195068359,-0.643371582,0.293640137,0.48828125,0.40625,-0.9765625,-7.5390625,6.359375,0.015625,-0.607421875,0.962890625,0.876953125
639,6347250,6647250,0.680480957,-0.195556641,-0.639404297,0.299743652,0.48828125,0.40625,-0.9765625,-7.5390625,6.359375,0.015625,-0.533203125,0.798828125,1.01171875
640,6355939,6655939,0.681274414,-0.195861816,-0.635681152,0.305603027,1.0546875,0.7265625,0.04296875,-7.4140625,6.5,-0.046875,-0.533203125,0.798828125,1.01171875
641,6371501,6671501,0.682312012,-0.195678711,-0.631835938,0.311340332,1.0546875,0.7265625,0.04296875,-7.4140625,6.5,-0.046875,-0.6171875,0.95703125,0.859375
642,6375998,6675998,0.683837891,-0.194946289,-0.627563477,0.317016602,0.8046875,0.546875,0.28125,-7.28125,6.640625,-0.09375,-0.6171875,0.95703125,0.859375
643,6387911,6687911,0.685974121,-0.194030762,-0.62298584,0.322021484,0.8046875,0.546875,0.28125,-7.28125,6.640625,-0.09375,-0.443359375,1.234375,0.669921875
644,6393908,6693908,0.688598633,-0.19317627,-0.617919922,0.326599121,-0.60546875,-0.3359375,-0.51171875,-7.171875,6.7578125,-0.1796875,-0.443359375,1.234375,0.669921875
645,6408221,6708221,0.69140625,-0.192749023,-0.612670898,0.330810547,-0.60546875,-0.3359375,-0.51171875,-7.171875,6.7578125,-0.1796875,-0.212890625,1.25585938,0.71875
646,6414595,6714595,0.694030762,-0.192565918,-0.607421875,0.335083008,-0.8984375,-0.28515625,-1.17578125,-7.0703125,6.859375,-0.3203125,-0.212890625,1.25585938,0.71875
647,6427194,6727194,0.696166992,-0.192382812,-0.602539062,0.339599609,-0.8984375,-0.28515625,-1.17578125,-7.0703125,6.859375,-0.3203125,-0.37890625,1.06445312,0.7578125
648,6435915,6735915,0.697692871,-0.191833496,-0.598144531,0.344421387,-0.90234375,0.640625,-1.35546875,-6.953125,6.96875,-0.4453125,-0.37890625,1.06445312,0.7578125
649,6451017,6751017,0.698669434,-0.190673828,-0.594299316,0.34979248,-0.90234375,0.640625,-1.35546875,-6.953125,6.96875,-0.4453125,-0.794921875,0.90234375,0.705078125
650,6455189,6755189,0.699157715,-0.189331055,-0.590820312,0.355285645,0.51171875,0.30859375,-0.68359375,-6.8359375,7.0703125,-0.5078125,-0.794921875,0.90234375,0.705078125
651,6467367,6767367,0.699768066,-0.188415527,-0.587341309,0.360412598,0.51171875,0.30859375,-0.68359375,-6.8359375,7.0703125,-0.5078125,-0.458984375,0.75390625,0.630859375
652,6475966,6775966,0.700927734,-0.188537598,-0.584106445,0.36328125,-0.62890625,-1.296875,0.17578125,-6.7265625,7.1796875,-0.5234375,-0.458984375,0.75390625,0.630859375
653,6489864,6789864,0.70300293,-0.189758301,-0.580749512,0.364074707,-0.62890625,-1.296875,0.17578125,-6.7265625,7.1796875,-0.5234375,0.51171875,0.59765625,0.3515625
654,6493605,6793605,0.705383301,-0.19152832,-0.577575684,0.363586426,-2.2421875,-1.93359375,0.8046875,-6.6484375,7.2421875,-0.6171875,0.51171875,0.59765625,0.3515625
655,6507510,6807510,0.708007812,-0.19329834,-0.57409668,0.363037109,-2.2421875,-1.93359375,0.8046875,-6.6484375,7.2421875,-0.6171875,0.46875,0.626953125,0.328125
656,6515612,6815612,0.710205078,-0.194030762,-0.570739746,0.363586426,-1.71875,-0.40234375,0.59375,-6.59375,7.28125,-0.7890625,0.46875,0.626953125,0.328125
657,6529297,6829297,0.712158203,-0.193481445,-0.567321777,0.365356445,-1.71875,-0.40234375,0.59375,-6.59375,7.28125,-0.7890625,-0.21484375,0.90234375,0.2734375
658,6533032,6833032,0.714111328,-0.19152832,-0.563659668,0.368347168,0.67578125,0.9375,-0.12109375,-6.5390625,7.3203125,-0.9140625,-0.21484375,0.90234375,0.2734375
659,6546457,6846457,0.716430664,-0.188537598,-0.559204102,0.372192383,0.67578125,0.9375,-0.12109375,-6.5390625,7.3203125,-0.9140625,-0.533203125,1.3203125,0.2265625
660,6554020,6854020,0.719055176,-0.185852051,-0.55456543,0.375366211,0.65234375,-0.5625,-0.19921875,-6.4765625,7.3671875,-0.9921875,-0.533203125,1.3203125,0.2265625
661,6568172,6868172,0.721679688,-0.184448242,-0.550598145,0.376831055,0.65234375,-0.5625,-0.19921875,-6.4765625,7.3671875,-0.9921875,0.1875,0.890625,0.123046875
662,6574633,6874633,0.724365234,-0.184509277,-0.547424316,0.376281738,-1.81640625,-2.3125,-0.00390625,-6.421875,7.390625,-1.109375,0.1875,0.890625,0.123046875
663,6586750,6886750,0.72668457,-0.185913086,-0.545410156,0.374084473,-1.81640625,-2.3125,-0.00390625,-6.421875,7.390625,-1.109375,0.833984375,0.201171875,0.001953125
664,6602164,6902164,0.72869873,-0.187683105,-0.544006348,0.371276855,-2.25390625,-2.265625,0.421875,-6.40625,7.3828125,-1.265625,0.833984375,0.201171875,0.001953125
665,6607166,6907166,0.730712891,-0.188781738,-0.542480469,0.369018555,-2.25390625,-2.265625,0.421875,-6.40625,7.3828125,-1.265625,0.576171875,0.404296875,-0.080078125
666,6615404,6915404,0.732971191,-0.188720703,-0.540161133,0.367858887,0,-0.77734375,0.09375,-6.3984375,7.3515625,-1.3984375,0.576171875,0.404296875,-0.080078125
667,6629340,6929340,0.734863281,-0.187683105,-0.537597656,0.368408203,0,-0.77734375,0.09375,-6.3984375,7.3515625,-1.3984375,-0.12109375,0.71484375,0.0625
668,6633072,6933072,0.73626709,-0.186340332,-0.535095215,0.369934082,0.48046875,0.72265625,-0.5546875,-6.3828125,7.34375,-1.515625,-0.12109375,0.71484375,0.0625
669,6647245,6947245,0.737426758,-0.185241699,-0.532775879,0.371520996,0.48046875,0.72265625,-0.5546875,-6.3828125,7.34375,-1.515625,-0.138671875,0.54296875,0.16015625
670,6653236,6953236,0.738586426,-0.184936523,-0.530578613,0.372497559,-0.515625,0.85546875,0.12109375,-6.34375,7.3671875,-1.578125,-0.138671875,0.54296875,0.16015625
671,6666163,6966163,0.739746094,-0.18560791,-0.528869629,0.372314453,-0.515625,0.85546875,0.12109375,-6.34375,7.3671875,-1.578125,0.3671875,0.25,0.142578125
672,6682168,6982168,0.741027832,-0.186828613,-0.52746582,0.371154785,-1.46484375,-0.00390625,1.63671875,-6.3125,7.3828125,-1.640625,0.3671875,0.25,0.142578125
673,6686819,6986819,0.742492676,-0.188110352,-0.526123047,0.369445801,-1.46484375,-0.00390625,1.63671875,-6.3125,7.3828125,-1.640625,0.546875,0.22265625,0.017578125
674,6695058,6995058,0.744018555,-0.188781738,-0.524780273,0.368041992,-0.80078125,-0.53125,1.546875,-6.2890625,7.375,-1.7421875,0.546875,0.22265625,0.017578125
675,6708965,7008965,0.745300293,-0.188537598,-0.52331543,0.367492676,-0.80078125,-0.53125,1.546875,-6.2890625,7.375,-1.7421875,0.056640625,0.376953125,-0.048828125
676,6712696,7012696,0.74621582,-0.18762207,-0.522155762,0.367797852,-0.33984375,0.171875,0.5625,-6.2890625,7.359375,-1.828125,0.056640625,0.376953125,-0.048828125
677,6729857,7029857,0.746826172,-0.186462402,-0.521240234,0.368530273,-0.33984375,0.171875,0.5625,-6.2890625,7.359375,-1.828125,-0.18359375,0.265625,-0.056640625
678,6733516,7033516,0.747192383,-0.18548584,-0.520568848,0.369262695,-0.1953125,0.484375,0.05078125,-6.28125,7.3515625,-1.8515625,-0.18359375,0.265625,-0.056640625
679,6748828,7048828,0.747436523,-0.184692383,-0.520019531,0.369873047,-0.1953125,0.484375,0.05078125,-6.28125,7.3515625,-1.8515625,-0.09375,0.154296875,-0.021484375
680,6758263,7058263,0.747741699,-0.184204102,-0.519592285,0.370178223,-0.80859375,0.1015625,0.82421875,-6.28125,7.3515625,-1.859375,-0.09375,0.154296875,-0.021484375
681,6770781,7070781,0.74798584,-0.183959961,-0.519226074,0.370178223,-0.80859375,0.1015625,0.82421875,-6.28125,7.3515625,-1.859375,0.021484375,0.07421875,-0.029296875
682,6774798,7074798,0.74822998,-0.183776855,-0.519042969,0.370056152,-0.84375,-0.5859375,0.5234375,-6.28125,7.3515625,-1.8671875,0.021484375,0.07421875,-0.029296875
683,6789274,7089274,0.748413086,-0.18371582,-0.518981934,0.369812012,-0.84375,-0.5859375,0.5234375,-6.28125,7.3515625,-1.8671875,0.033203125,-0.0078125,-0.052734375
684,6792881,7092881,0.748413086,-0.183654785,-0.519226074,0.369506836,-0.75390625,-0.77734375,0.1484375,-6.296875,7.3515625,-1.875,0.033203125,-0.0078125,-0.052734375
685,6807599,7107599,0.748352051,-0.18359375,-0.51965332,0.369140625,-0.75390625,-0.77734375,0.1484375,-6.296875,7.3515625,-1.875,0.025390625,-0.103515625,-0.076171875
686,6813585,7113585,0.74822998,-0.18359375,-0.520141602,0.368713379,-0.36328125,-0.73046875,0.33984375,-6.3046875,7.34375,-1.875,0.025390625,-0.103515625,-0.076171875
687,6828891,7128891,0.748046875,-0.183532715,-0.520690918,0.368347168,-0.36328125,-0.73046875,0.33984375,-6.3046875,7.34375,-1.875,-0.005859375,-0.126953125,-0.09765625
688,6836820,7136820,0.747680664,-0.183349609,-0.52142334,0.368041992,-0.33984375,-0.4765625,0.40234375,-6.328125,7.3203125,-1.859375,-0.005859375,-0.126953125,-0.09765625
689,6850416,7150416,0.747131348,-0.183105469,-0.522521973,0.367736816,-0.33984375,-0.4765625,0.40234375,-6.328125,7.3203125,-1.859375,-0.076171875,-0.244140625,-0.12890625
690,6854504,7154504,0.746459961,-0.182922363,-0.523803711,0.367431641,-0.58203125,-0.46875,0.6015625,-6.3515625,7.3125,-1.828125,-0.076171875,-0.244140625,-0.12890625
691,6868595,7168595,0.745605469,-0.182800293,-0.52545166,0.366821289,-0.58203125,-0.46875,0.6015625,-6.3515625,7.3125,-1.828125,-0.02734375,-0.3671875,-0.17578125
692,6873396,7173396,0.744750977,-0.182861328,-0.52722168,0.365966797,-0.66796875,-0.484375,0.78125,-6.3828125,7.2890625,-1.78125,-0.02734375,-0.3671875,-0.17578125
693,6887545,7187545,0.743835449,-0.183044434,-0.52935791,0.364624023,-0.66796875,-0.484375,0.78125,-6.3828125,7.2890625,-1.78125,0.119140625,-0.5078125,-0.265625
694,6893534,7193534,0.742980957,-0.183349609,-0.531799316,0.362731934,-0.8515625,-0.80078125,0.7265625,-6.4296875,7.2578125,-1.7265625,0.119140625,-0.5078125,-0.265625
695,6908839,7208839,0.742004395,-0.183776855,-0.534484863,0.360534668,-0.8515625,-0.80078125,0.7265625,-6.4296875,7.2578125,-1.7265625,0.22265625,-0.63671875,-0.359375
696,6917512,7217512,0.741027832,-0.184082031,-0.537231445,0.358276367,-0.85546875,-0.90625,0.796875,-6.5,7.2109375,-1.6796875,0.22265625,-0.63671875,-0.359375
697,6928111,7228111,0.739807129,-0.184082031,-0.540466309,0.355895996,-0.85546875,-0.90625,0.796875,-6.5,7.2109375,-1.6796875,0.099609375,-0.689453125,-0.44140625
698,6934249,7234249,0.73840332,-0.183776855,-0.543945312,0.35369873,-0.80859375,-0.3828125,0.6953125,-6.5859375,7.1484375,-1.6171875,0.099609375,-0.689453125,-0.44140625
699,6947861,7247861,0.736755371,-0.183166504,-0.547668457,0.351623535,-0.80859375,-0.3828125,0.6953125,-6.5859375,7.1484375,-1.6171875,-0.0390625,-0.78125,-0.53515625
700,6954215,7254215,0.734985352,-0.182373047,-0.551635742,0.34967041,-0.71484375,-0.359375,0.70703125,-6.6796875,7.0859375,-1.515625,-0.0390625,-0.78125,-0.53515625
701,6968503,7268503,0.732910156,-0.18145752,-0.555908203,0.347717285,-0.71484375,-0.359375,0.70703125,-6.6796875,7.0859375,-1.515625,-0.142578125,-0.880859375,-0.576171875
702,6973991,7273991,0.730651855,-0.180480957,-0.56036377,0.345825195,-0.4921875,-0.2421875,0.8515625,-6.7890625,7.0078125,-1.390625,-0.142578125,-0.880859375,-0.576171875
703,6987849,7287849,0.728393555,-0.1796875,-0.56463623,0.343994141,-0.4921875,-0.2421875,0.8515625,-6.7890625,7.0078125,-1.390625,-0.12109375,-0.900390625,-0.544921875
704,7002797,7302797,0.726257324,-0.178833008,-0.568847656,0.342102051,-0.3515625,-0.0859375,0.7109375,-6.890625,6.9296875,-1.25,-0.12109375,-0.900390625,-0.544921875
705,7008799,7308799,0.724304199,-0.177856445,-0.572692871,0.340209961,-0.3515625,-0.0859375,0.7109375,-6.890625,6.9296875,-1.25,-0.134765625,-0.755859375,-0.560546875
706,7017323,7317323,0.722412109,-0.176635742,-0.576477051,0.338500977,-0.44140625,0.296875,0.15625,-6.9921875,6.8515625,-1.1171875,-0.134765625,-0.755859375,-0.560546875
707,7027486,7327486,0.720214844,-0.175231934,-0.580749512,0.336608887,-0.44140625,0.296875,0.15625,-6.9921875,6.8515625,-1.1171875,-0.19921875,-0.884765625,-0.62890625
708,7035114,7335114,0.717651367,-0.17401123,-0.585510254,0.334533691,-0.80078125,0.26171875,-0.2890625,-7.09375,6.7734375,-0.9765625,-0.19921875,-0.884765625,-0.62890625
709,7047829,7347829,0.71472168,-0.173217773,-0.590759277,0.331970215,-0.80078125,0.26171875,-0.2890625,-7.09375,6.7734375,-0.9765625,-0.052734375,-1.1953125,-0.662109375
710,7053807,7353807,0.711669922,-0.172790527,-0.596252441,0.328918457,-0.95703125,0.5078125,-0.01171875,-7.203125,6.6796875,-0.796875,-0.052734375,-1.1953125,-0.662109375
711,7069540,7369540,0.708557129,-0.172607422,-0.601867676,0.325500488,-0.95703125,0.5078125,-0.01171875,-7.203125,6.6796875,-0.796875,0.10546875,-1.27539062,-0.6875
712,7078488,7378488,0.705505371,-0.172729492,-0.607116699,0.322143555,-0.734375,0.79296875,0.5859375,-7.3125,6.5859375,-0.625,0.10546875,-1.27539062,-0.6875
713,7091389,7391389,0.701965332,-0.173034668,-0.612976074,0.318603516,-0.734375,0.79296875,0.5859375,-7.3125,6.5859375,-0.625,0.0546875,-1.32617188,-0.57421875
714,7095513,7395513,0.698547363,-0.173217773,-0.618286133,0.315795898,-0.32421875,0.7421875,0.2421875,-7.4140625,6.484375,-0.4375,0.0546875,-1.32617188,-0.57421875
715,7109067,7409067,0.694946289,-0.173278809,-0.623596191,0.313293457,-0.32421875,0.7421875,0.2421875,-7.4140625,6.484375,-0.4375,-0.0625,-1.21289062,-0.501953125
716,7112798,7412798,0.691833496,-0.173217773,-0.628234863,0.310852051,-0.0546875,0.3984375,-0.10546875,-7.4921875,6.40625,-0.2421875,-0.0625,-1.21289062,-0.501953125
717,7129208,7429208,0.688781738,-0.173461914,-0.632995605,0.308044434,-0.0546875,0.3984375,-0.10546875,-7.4921875,6.40625,-0.2421875,0.107421875,-1.13671875,-0.48046875
718,7132933,7432933,0.68572998,-0.174072266,-0.637451172,0.305114746,-0.140625,-0.0625,-1.34765625,-7.5625,6.328125,-0.0703125,0.107421875,-1.13671875,-0.48046875
719,7149128,7449128,0.682373047,-0.175109863,-0.64239502,0.301635742,-0.140625,-0.0625,-1.34765625,-7.5625,6.328125,-0.0703125,0.267578125,-1.22851562,-0.482421875
720,7157615,7457615,0.679504395,-0.176025391,-0.646789551,0.298217773,0,0.046875,-0.81640625,-7.625,6.2578125,0.0859375,0.267578125,-1.22851562,-0.482421875
721,7169109,7469109,0.676513672,-0.176879883,-0.651367188,0.294433594,0,0.046875,-0.81640625,-7.625,6.2578125,0.0859375,0.267578125,-1.1328125,-0.53125
722,7176408,7476408,0.673828125,-0.177612305,-0.655578613,0.290893555,-0.0234375,-0.44921875,-1.00390625,-7.6796875,6.1796875,0.234375,0.267578125,-1.1328125,-0.53125
723,7187229,7487229,0.671203613,-0.178710938,-0.659729004,0.28692627,-0.0234375,-0.44921875,-1.00390625,-7.6796875,6.1796875,0.234375,0.447265625,-1.08398438,-0.509765625
724,7193637,7493637,0.668823242,-0.180419922,-0.663635254,0.282348633,0.203125,-0.66796875,-1.2109375,-7.75,6.09375,0.3671875,0.447265625,-1.08398438,-0.509765625
725,7207784,7507784,0.666687012,-0.182800293,-0.667297363,0.27722168,0.203125,-0.66796875,-1.2109375,-7.75,6.09375,0.3671875,0.83203125,-1.11132812,-0.466796875
726,7214860,7514860,0.664489746,-0.185852051,-0.670898438,0.271728516,0.1328125,-0.72265625,-1.56640625,-7.796875,6.03125,0.453125,0.83203125,-1.11132812,-0.466796875
727,7228400,7528400,0.662109375,-0.189331055,-0.674499512,0.266113281,0.1328125,-0.72265625,-1.56640625,-7.796875,6.03125,0.453125,1.01953125,-1.2734375,-0.373046875
728,7236227,7536227,0.659362793,-0.193359375,-0.678405762,0.260131836,0.25,0.03125,-1.0703125,-7.8359375,5.96875,0.53125,1.01953125,-1.2734375,-0.373046875
729,7247040,7547040,0.656494141,-0.19708252,-0.682067871,0.254882812,0.25,0.03125,-1.0703125,-7.8359375,5.96875,0.53125,0.83984375,-1.27539062,-0.259765625
730,7253952,7553952,0.653442383,-0.200683594,-0.68560791,0.250366211,1,0.68359375,-0.57421875,-7.859375,5.9296875,0.609375,0.83984375,-1.27539062,-0.259765625
