sample_index,offset_us,timestamp_us,quat_i,quat_j,quat_k,quat_real,linear_accel_x_mps2,linear_accel_y_mps2,linear_accel_z_mps2,gravity_x_mps2,gravity_y_mps2,gravity_z_mps2,gyro_x_radps,gyro_y_radps,gyro_z_radps
0,17870,317870,0.64642334,-0.179443359,-0.696838379,0.253601074,0.2578125,0.421875,-0.484375,-8.21875,5.21875,1.5,-0.66015625,1.09375,0.544921875
1,31739,331739,0.648803711,-0.178039551,-0.692871094,0.259460449,0.2578125,0.421875,-0.484375,-8.21875,5.21875,1.5,-0.693359375,1.171875,0.806640625
2,31787,331787,0.651245117,-0.176940918,-0.688537598,0.265625,0.609375,0.45703125,-1.1015625,-7.9296875,5.7734375,0.90625,-0.693359375,1.171875,0.806640625
3,31819,331819,0.653625488,-0.176086426,-0.684020996,0.271850586,0.609375,0.45703125,-1.1015625,-7.9296875,5.7734375,0.90625,-0.6328125,1.16015625,0.953125
4,31867,331867,0.655700684,-0.17578125,-0.67956543,0.278015137,0.83984375,0.24609375,-1.18359375,-7.8515625,5.90625,0.796875,-0.6328125,1.16015625,0.953125
5,31899,331899,0.657592773,-0.176025391,-0.675292969,0.283874512,0.83984375,0.24609375,-1.18359375,-7.8515625,5.90625,0.796875,-0.421875,0.953125,1.00585938
6,31946,331946,0.659240723,-0.176757812,-0.671264648,0.289123535,0.30078125,-0.125,-1.04296875,-7.734375,6.046875,0.6953125,-0.421875,0.953125,1.00585938
7,31979,331979,0.660888672,-0.177978516,-0.667114258,0.294189453,0.30078125,-0.125,-1.04296875,-7.734375,6.046875,0.6953125,-0.22265625,0.822265625,1.00390625
8,44812,344812,0.684265137,-0.180297852,-0.613647461,0.350341797,0.30078125,-0.125,-1.04296875,-7.734375,6.046875,0.6953125,-0.4296875,0.861328125,0.85546875
9,52535,352535,0.685302734,-0.178710938,-0.609191895,0.356811523,0.30078125,-0.125,-1.04296875,-7.734375,6.046875,0.6953125,-1.03515625,1.18554688,0.884765625
10,60051,360051,0.686462402,-0.175964355,-0.604003906,0.364685059,0.67578125,0.6015625,-0.046875,-6.921875,7.0078125,-0.0703125,-1.03515625,1.18554688,0.884765625
11,71863,371863,0.687866211,-0.172790527,-0.598815918,0.372131348,0.67578125,0.6015625,-0.046875,-6.921875,7.0078125,-0.0703125,-1.11132812,1.41992188,0.77734375
12,78046,378046,0.689575195,-0.170043945,-0.593322754,0.37890625,-0.12890625,0.13671875,-1.08984375,-6.8046875,7.125,-0.1015625,-1.11132812,1.41992188,0.77734375
13,90833,390833,0.691589355,-0.168945312,-0.588500977,0.383239746,-0.12890625,0.13671875,-1.08984375,-6.8046875,7.125,-0.1015625,-0.107421875,0.98828125,0.619140625
14,100860,400860,0.693908691,-0.16986084,-0.584350586,0.385009766,-1.7421875,-1.49609375,-0.63671875,-6.6875,7.2265625,-0.171875,-0.107421875,0.98828125,0.619140625
15,112875,412875,0.696716309,-0.172302246,-0.580383301,0.384765625,-1.7421875,-1.49609375,-0.63671875,-6.6875,7.2265625,-0.171875,0.87109375,0.63671875,0.486328125
16,118484,418484,0.700073242,-0.17565918,-0.57623291,0.383422852,-2.6171875,-2.1796875,0.87890625,-6.6171875,7.296875,-0.34375,0.87109375,0.63671875,0.486328125
17,132156,432156,0.70324707,-0.178894043,-0.57232666,0.382019043,-2.6171875,-2.1796875,0.87890625,-6.6171875,7.296875,-0.34375,0.919921875,0.62109375,0.482421875
18,139866,439866,0.706115723,-0.18145752,-0.56829834,0.381530762,-1.0546875,-1.58203125,0.63671875,-6.53125,7.3515625,-0.5625,0.919921875,0.62109375,0.482421875
19,152545,452545,0.709106445,-0.183105469,-0.563354492,0.382385254,-1.0546875,-1.58203125,0.63671875,-6.53125,7.3515625,-0.5625,0.34765625,1.078125,0.611328125
20,158507,458507,0.711914062,-0.183837891,-0.558105469,0.38458252,-0.56640625,0.0703125,0.87109375,-6.4453125,7.421875,-0.7578125,0.34765625,1.078125,0.611328125
21,171681,471681,0.713439941,-0.183776855,-0.553955078,0.387817383,-0.56640625,0.0703125,0.87109375,-6.4453125,7.421875,-0.7578125,-0.36328125,0.779296875,0.6171875
22,181253,481253,0.713989258,-0.183410645,-0.55078125,0.391418457,-0.37890625,-0.3125,0.65234375,-6.328125,7.5,-0.8828125,-0.36328125,0.779296875,0.6171875
23,192095,492095,0.714172363,-0.183044434,-0.548217773,0.394836426,-0.37890625,-0.3125,0.65234375,-6.328125,7.5,-0.8828125,-0.357421875,0.421875,0.43359375
24,204013,504013,0.714050293,-0.182922363,-0.546691895,0.397216797,-1.6875,0.11328125,1.32421875,-6.2421875,7.5703125,-0.90625,-0.357421875,0.421875,0.43359375
25,209509,509509,0.713745117,-0.182922363,-0.545959473,0.398742676,-1.6875,0.11328125,1.32421875,-6.2421875,7.5703125,-0.90625,-0.1640625,0.083984375,0.18359375
26,218471,518471,0.713684082,-0.182800293,-0.545349121,0.399780273,-1.46875,-0.57421875,1.6171875,-6.1953125,7.609375,-0.890625,-0.1640625,0.083984375,0.18359375
27,231756,531756,0.713928223,-0.182250977,-0.54473877,0.40045166,-1.46875,-0.57421875,1.6171875,-6.1953125,7.609375,-0.890625,-0.10546875,0.23046875,-0.0234375
28,237612,537612,0.714477539,-0.181396484,-0.544006348,0.400817871,-0.10546875,-0.66015625,1.33984375,-6.1796875,7.6171875,-0.8828125,-0.10546875,0.23046875,-0.0234375
29,251731,551731,0.715087891,-0.180358887,-0.543395996,0.401062012,-0.10546875,-0.66015625,1.33984375,-6.1796875,7.6171875,-0.8828125,-0.046875,0.203125,-0.115234375
30,259871,559871,0.715637207,-0.17956543,-0.543029785,0.400939941,-0.05859375,-0.61328125,0.59765625,-6.1875,7.609375,-0.90625,-0.046875,0.203125,-0.115234375
31,272558,572558,0.716186523,-0.178894043,-0.542724609,0.400634766,-0.05859375,-0.61328125,0.59765625,-6.1875,7.609375,-0.90625,0.037109375,0.130859375,-0.130859375
32,279871,579871,0.71673584,-0.178344727,-0.542480469,0.400268555,-0.08203125,-0.55859375,0.65234375,-6.203125,7.59375,-0.921875,0.037109375,0.130859375,-0.130859375
33,292539,592539,0.717102051,-0.177978516,-0.542358398,0.399963379,-0.08203125,-0.55859375,0.65234375,-6.203125,7.59375,-0.921875,0.037109375,0.033203125,-0.078125
34,301185,601185,0.717224121,-0.177978516,-0.542419434,0.399658203,-0.5625,-0.62109375,0.32421875,-6.21875,7.578125,-0.9375,0.037109375,0.033203125,-0.078125
35,311685,611685,0.717102051,-0.178405762,-0.542663574,0.399291992,-0.5625,-0.62109375,0.32421875,-6.21875,7.578125,-0.9375,0.091796875,-0.140625,0.03125
36,318086,618086,0.716796875,-0.179199219,-0.543029785,0.398925781,-0.87109375,-0.5078125,-0.20703125,-6.21875,7.578125,-0.9453125,0.091796875,-0.140625,0.03125
37,333119,633119,0.716430664,-0.180114746,-0.543579102,0.398498535,-0.87109375,-0.5078125,-0.20703125,-6.21875,7.578125,-0.9453125,0.103515625,-0.2109375,0.0390625
38,338155,638155,0.716003418,-0.180847168,-0.544189453,0.398132324,-0.82421875,-0.16015625,0.0546875,-6.2265625,7.578125,-0.9375,0.103515625,-0.2109375,0.0390625
39,352413,652413,0.715454102,-0.181274414,-0.54486084,0.397949219,-0.82421875,-0.16015625,0.0546875,-6.2265625,7.578125,-0.9375,-0.02734375,-0.203125,-0.00390625
40,361252,661252,0.714782715,-0.181518555,-0.545654297,0.397949219,-0.5546875,0.296875,0.22265625,-6.2265625,7.578125,-0.9140625,-0.02734375,-0.203125,-0.00390625
41,371783,671783,0.713989258,-0.181518555,-0.546447754,0.39831543,-0.5546875,0.296875,0.22265625,-6.2265625,7.578125,-0.9140625,-0.203125,-0.197265625,-0.001953125
42,379869,679869,0.713012695,-0.181335449,-0.547302246,0.398986816,-0.1328125,0.87109375,0.56640625,-6.2265625,7.578125,-0.875,-0.203125,-0.197265625,-0.001953125
43,391623,691623,0.711914062,-0.180786133,-0.548217773,0.400024414,-0.1328125,0.87109375,0.56640625,-6.2265625,7.578125,-0.875,-0.365234375,-0.1484375,0.00390625
44,398252,698252,0.710754395,-0.179992676,-0.54901123,0.401306152,0.41796875,0.796875,0.57421875,-6.2421875,7.578125,-0.8046875,-0.365234375,-0.1484375,0.00390625
45,411613,711613,0.709411621,-0.178833008,-0.549926758,0.402893066,0.41796875,0.796875,0.57421875,-6.2421875,7.578125,-0.8046875,-0.505859375,-0.125,-0.0234375
46,420860,720860,0.708129883,-0.177612305,-0.55078125,0.40447998,0.46484375,0.359375,0.10546875,-6.25,7.59375,-0.71875,-0.505859375,-0.125,-0.0234375
47,432129,732129,0.706787109,-0.176330566,-0.551696777,0.406188965,0.46484375,0.359375,0.10546875,-6.25,7.59375,-0.71875,-0.509765625,-0.12109375,-0.009765625
48,438503,738503,0.705383301,-0.175231934,-0.55255127,0.407897949,-0.03515625,-0.25390625,0.046875,-6.25,7.59375,-0.625,-0.509765625,-0.12109375,-0.009765625
49,451691,751691,0.703857422,-0.174499512,-0.553527832,0.409606934,-0.03515625,-0.25390625,0.046875,-6.25,7.59375,-0.625,-0.470703125,-0.205078125,0.0703125
50,459863,759863,0.702270508,-0.174133301,-0.554504395,0.411132812,-0.265625,-0.4140625,0.03125,-6.25,7.6015625,-0.53125,-0.470703125,-0.205078125,0.0703125
51,472117,772117,0.700378418,-0.174194336,-0.555725098,0.412597656,-0.265625,-0.4140625,0.03125,-6.25,7.6015625,-0.53125,-0.361328125,-0.37890625,0.130859375
52,478067,778067,0.698486328,-0.174621582,-0.557250977,0.413635254,-0.5078125,-0.7734375,-0.109375,-6.234375,7.6171875,-0.4296875,-0.361328125,-0.37890625,0.130859375
53,493372,793372,0.696655273,-0.175476074,-0.558959961,0.4140625,-0.5078125,-0.7734375,-0.109375,-6.234375,7.6171875,-0.4296875,-0.130859375,-0.544921875,0.0625
54,498486,798486,0.694824219,-0.176635742,-0.560913086,0.41394043,-0.9765625,-0.5625,-0.01171875,-6.2265625,7.6328125,-0.3359375,-0.130859375,-0.544921875,0.0625
55,512276,812276,0.693237305,-0.178161621,-0.562988281,0.413208008,-0.9765625,-0.5625,-0.01171875,-6.2265625,7.6328125,-0.3359375,0.1171875,-0.630859375,-0.015625
56,520532,820532,0.691833496,-0.179626465,-0.565063477,0.41217041,0.01953125,-1.44140625,1.09765625,-6.2265625,7.6328125,-0.2578125,0.1171875,-0.630859375,-0.015625
57,531956,831956,0.690429688,-0.180969238,-0.567138672,0.411010742,0.01953125,-1.44140625,1.09765625,-6.2265625,7.6328125,-0.2578125,0.103515625,-0.6171875,-0.083984375
58,541165,841165,0.688781738,-0.182189941,-0.569519043,0.409912109,0.21875,-1.47265625,1.50390625,-6.234375,7.625,-0.203125,0.103515625,-0.6171875,-0.083984375
59,552315,852315,0.686645508,-0.183288574,-0.572387695,0.408935547,0.21875,-1.47265625,1.50390625,-6.234375,7.625,-0.203125,-0.07421875,-0.80078125,-0.119140625
60,558271,858271,0.684143066,-0.184326172,-0.575622559,0.40814209,-0.41015625,-0.99609375,0.99609375,-6.2578125,7.609375,-0.1171875,-0.07421875,-0.80078125,-0.119140625
61,571642,871642,0.681213379,-0.185302734,-0.579467773,0.407226562,-0.41015625,-0.99609375,0.99609375,-6.2578125,7.609375,-0.1171875,-0.16796875,-1.02734375,-0.20703125
62,579884,879884,0.678100586,-0.186096191,-0.583557129,0.406188965,-1.07421875,-0.8203125,0.86328125,-6.28125,7.5859375,0.015625,-0.16796875,-1.02734375,-0.20703125
63,592108,892108,0.674743652,-0.186584473,-0.588256836,0.404785156,-1.07421875,-0.8203125,0.86328125,-6.28125,7.5859375,0.015625,-0.201171875,-1.08007812,-0.38671875
64,600541,900541,0.671447754,-0.186828613,-0.593078613,0.403137207,-1.296875,-0.51171875,1.07421875,-6.328125,7.546875,0.1875,-0.201171875,-1.08007812,-0.38671875
65,612655,912655,0.668273926,-0.186767578,-0.597900391,0.401367188,-1.296875,-0.51171875,1.07421875,-6.328125,7.546875,0.1875,-0.203125,-1.03515625,-0.50390625
66,618484,918484,0.665283203,-0.185974121,-0.602539062,0.399719238,-0.53515625,-0.45703125,1.5546875,-6.3984375,7.4921875,0.359375,-0.203125,-1.03515625,-0.50390625
67,631769,931769,0.662109375,-0.184570312,-0.60760498,0.397949219,-0.53515625,-0.45703125,1.5546875,-6.3984375,7.4921875,0.359375,-0.373046875,-1.09765625,-0.75
68,638214,938214,0.658691406,-0.183410645,-0.61315918,0.395629883,-1.6015625,-0.5546875,-0.01171875,-6.484375,7.3984375,0.546875,-0.373046875,-1.09765625,-0.75
69,652728,952728,0.654846191,-0.182800293,-0.619445801,0.392456055,-1.6015625,-0.5546875,-0.01171875,-6.484375,7.3984375,0.546875,-0.103515625,-1.34375,-0.796875
70,658042,958042,0.651306152,-0.182678223,-0.625488281,0.38885498,-0.04296875,-0.484375,-1.01953125,-6.5859375,7.2890625,0.75,-0.103515625,-1.34375,-0.796875
71,671381,971381,0.647705078,-0.182739258,-0.631469727,0.385192871,-0.04296875,-0.484375,-1.01953125,-6.5859375,7.2890625,0.75,-0.048828125,-1.36132812,-0.744140625
72,683196,983196,0.643859863,-0.182495117,-0.637207031,0.382263184,-0.67578125,1.34765625,-0.77734375,-6.6796875,7.1796875,0.9296875,-0.048828125,-1.36132812,-0.744140625
73,692603,992603,0.640258789,-0.18170166,-0.64239502,0.380004883,-0.67578125,1.34765625,-0.77734375,-6.6796875,7.1796875,0.9296875,-0.30078125,-1.11914062,-0.658203125
74,698030,998030,0.63671875,-0.179992676,-0.647460938,0.378112793,-0.796875,2.7890625,-0.0625,-6.75,7.078125,1.1328125,-0.30078125,-1.11914062,-0.658203125
75,711715,1011715,0.633117676,-0.177490234,-0.652526855,0.376586914,-0.796875,2.7890625,-0.0625,-6.75,7.078125,1.1328125,-0.638671875,-1.03515625,-0.791015625
76,718123,1018123,0.629455566,-0.175231934,-0.657592773,0.375,-1.01953125,1.671875,-1.72265625,-6.8359375,6.96875,1.3359375,-0.638671875,-1.03515625,-0.791015625
77,732489,1032489,0.626098633,-0.172851562,-0.662475586,0.373168945,-1.01953125,1.671875,-1.72265625,-6.8359375,6.96875,1.3359375,-0.49609375,-0.8359375,-0.783203125
78,739832,1039832,0.62322998,-0.170043945,-0.666931152,0.371398926,-1.09375,0.94921875,-0.0546875,-6.9140625,6.8515625,1.546875,-0.49609375,-0.8359375,-0.783203125
79,752009,1052009,0.62097168,-0.167297363,-0.670593262,0.369689941,-1.09375,0.94921875,-0.0546875,-6.9140625,6.8515625,1.546875,-0.380859375,-0.580078125,-0.763671875
80,762049,1062049,0.61932373,-0.164855957,-0.673950195,0.367492676,-0.85546875,-0.4140625,-0.52734375,-7,6.71875,1.7109375,-0.380859375,-0.580078125,-0.763671875
81,771651,1071651,0.618347168,-0.163024902,-0.676696777,0.364868164,-0.85546875,-0.4140625,-0.52734375,-7,6.71875,1.7109375,0.02734375,-0.42578125,-0.8125
82,778169,1078169,0.617553711,-0.161865234,-0.67980957,0.360900879,-0.76953125,-1.21484375,-1.38671875,-7.0859375,6.6015625,1.8046875,0.02734375,-0.42578125,-0.8125
83,792668,1092668,0.616638184,-0.16192627,-0.683044434,0.356262207,-0.76953125,-1.21484375,-1.38671875,-7.0859375,6.6015625,1.8046875,0.5234375,-0.771484375,-0.810546875
84,800414,1100414,0.615478516,-0.162780762,-0.686462402,0.351318359,0.0234375,-0.9921875,-1.70703125,-7.1875,6.4921875,1.859375,0.5234375,-0.771484375,-0.810546875
85,812719,1112719,0.614135742,-0.16394043,-0.689758301,0.346679688,0.0234375,-0.9921875,-1.70703125,-7.1875,6.4921875,1.859375,0.484375,-0.828125,-0.625
86,818475,1118475,0.612548828,-0.165222168,-0.692932129,0.342590332,0.58203125,-0.21484375,-0.4921875,-7.25,6.40625,1.90625,0.484375,-0.828125,-0.625
87,831413,1131413,0.610961914,-0.166564941,-0.695800781,0.338928223,0.58203125,-0.21484375,-0.4921875,-7.25,6.40625,1.90625,0.435546875,-0.751953125,-0.4609375
88,842612,1142612,0.609680176,-0.16784668,-0.698303223,0.335510254,0.4296875,0.078125,-0.32421875,-7.2890625,6.34375,1.96875,0.435546875,-0.751953125,-0.4609375
89,852639,1152639,0.608764648,-0.168762207,-0.700317383,0.332336426,0.4296875,0.078125,-0.32421875,-7.2890625,6.34375,1.96875,0.369140625,-0.4609375,-0.4140625
90,860227,1160227,0.608215332,-0.169372559,-0.702026367,0.329528809,-0.53515625,1.2734375,-0.46875,-7.3203125,6.296875,2,0.369140625,-0.4609375,-0.4140625
91,872790,1172790,0.607849121,-0.169494629,-0.703552246,0.326843262,-0.53515625,1.2734375,-0.46875,-7.3203125,6.296875,2,0.23046875,-0.298828125,-0.50390625
92,880097,1180097,0.607727051,-0.169250488,-0.704956055,0.32421875,-0.21875,1.39453125,-0.33203125,-7.3671875,6.25,2.015625,0.23046875,-0.298828125,-0.50390625
93,892421,1192421,0.607727051,-0.168945312,-0.706115723,0.321716309,-0.21875,1.39453125,-0.33203125,-7.3671875,6.25,2.015625,0.193359375,-0.193359375,-0.447265625
94,899969,1199969,0.607727051,-0.168640137,-0.707214355,0.319458008,0.671875,0.76953125,-0.45703125,-7.4140625,6.1875,2.0234375,0.193359375,-0.193359375,-0.447265625
95,912314,1212314,0.607788086,-0.168457031,-0.708129883,0.317443848,0.671875,0.76953125,-0.45703125,-7.4140625,6.1875,2.0234375,0.16796875,-0.1015625,-0.341796875
96,920907,1220907,0.607971191,-0.168151855,-0.708862305,0.315551758,0.48828125,0.48828125,-0.1171875,-7.4609375,6.125,2.03125,0.16796875,-0.1015625,-0.341796875
97,932490,1232490,0.608215332,-0.16809082,-0.709655762,0.313354492,0.48828125,0.48828125,-0.1171875,-7.4609375,6.125,2.03125,0.337890625,-0.16796875,-0.390625
98,938501,1238501,0.608398438,-0.168640137,-0.710571289,0.310668945,-0.203125,-0.0859375,-0.53125,-7.5,6.0859375,2.0234375,0.337890625,-0.16796875,-0.390625
99,952334,1252334,0.608337402,-0.169433594,-0.711730957,0.307739258,-0.203125,-0.0859375,-0.53125,-7.5,6.0859375,2.0234375,0.4296875,-0.341796875,-0.42578125
100,960229,1260229,0.608032227,-0.17010498,-0.713012695,0.30480957,-0.46875,0.3828125,-0.66015625,-7.5390625,6.0390625,2,0.4296875,-0.341796875,-0.42578125
101,972507,1272507,0.607727051,-0.170593262,-0.714294434,0.302246094,-0.46875,0.3828125,-0.66015625,-7.5390625,6.0390625,2,0.271484375,-0.30078125,-0.396484375
102,980606,1280606,0.607421875,-0.170715332,-0.715637207,0.299682617,0.2578125,0.11328125,-0.71484375,-7.578125,6,2.015625,0.271484375,-0.30078125,-0.396484375
103,992710,1292710,0.607116699,-0.170898438,-0.716796875,0.297302246,0.2578125,0.11328125,-0.71484375,-7.578125,6,2.015625,0.2578125,-0.26953125,-0.31640625
104,1001912,1301912,0.606811523,-0.171447754,-0.717834473,0.295043945,1.32421875,-0.22265625,-0.5390625,-7.609375,5.953125,2.03125,0.2578125,-0.26953125,-0.31640625
105,1012236,1312236,0.606506348,-0.172546387,-0.718933105,0.292419434,1.32421875,-0.22265625,-0.5390625,-7.609375,5.953125,2.03125,0.419921875,-0.34765625,-0.271484375
106,1020556,1320556,0.606079102,-0.17388916,-0.719970703,0.289916992,1.5390625,-0.4140625,0.265625,-7.6328125,5.9140625,2.03125,0.419921875,-0.34765625,-0.271484375
107,1031670,1331670,0.60559082,-0.175598145,-0.72088623,0.287597656,1.5390625,-0.4140625,0.265625,-7.6328125,5.9140625,2.03125,0.47265625,-0.369140625,-0.11328125
108,1038649,1338649,0.605102539,-0.177368164,-0.721679688,0.285583496,1.08984375,-0.13671875,0.11328125,-7.640625,5.90625,2.03125,0.47265625,-0.369140625,-0.11328125
109,1051784,1351784,0.604614258,-0.179260254,-0.722412109,0.283691406,1.08984375,-0.13671875,0.11328125,-7.640625,5.90625,2.03125,0.41796875,-0.318359375,-0.0546875
110,1060258,1360258,0.604187012,-0.181030273,-0.722961426,0.282043457,0.4765625,0.31640625,-0.53125,-7.640625,5.9140625,2.0234375,0.41796875,-0.318359375,-0.0546875
111,1071963,1371963,0.603881836,-0.182983398,-0.723266602,0.280517578,0.4765625,0.31640625,-0.53125,-7.640625,5.9140625,2.0234375,0.439453125,-0.203125,0.041015625
112,1078485,1378485,0.603881836,-0.184875488,-0.723266602,0.279296875,0.7734375,0.23046875,-0.37109375,-7.6328125,5.921875,2.015625,0.439453125,-0.203125,0.041015625
113,1091801,1391801,0.604064941,-0.186828613,-0.723083496,0.278137207,0.7734375,0.23046875,-0.37109375,-7.6328125,5.921875,2.015625,0.421875,-0.078125,0.083984375
114,1099123,1399123,0.604309082,-0.188537598,-0.72277832,0.277160645,0.60546875,0,0.05078125,-7.6171875,5.9609375,1.9765625,0.421875,-0.078125,0.083984375
115,1111728,1411728,0.604492188,-0.189941406,-0.72253418,0.276489258,0.60546875,0,0.05078125,-7.6171875,5.9609375,1.9765625,0.294921875,-0.04296875,0.087890625
116,1118713,1418713,0.604675293,-0.191223145,-0.722290039,0.275878906,0.3203125,0.015625,-0.0625,-7.6015625,5.984375,1.9375,0.294921875,-0.04296875,0.087890625
117,1131341,1431341,0.604797363,-0.192504883,-0.722106934,0.275146484,0.3203125,0.015625,-0.0625,-7.6015625,5.984375,1.9375,0.294921875,-0.076171875,0.05078125
118,1139114,1439114,0.604858398,-0.193847656,-0.721984863,0.274353027,-0.30078125,-0.078125,-0.3828125,-7.59375,6,1.9140625,0.294921875,-0.076171875,0.05078125
119,1151294,1451294,0.605102539,-0.195068359,-0.721801758,0.273498535,-0.30078125,-0.078125,-0.3828125,-7.59375,6,1.9140625,0.298828125,-0.017578125,0.03515625
120,1162277,1462277,0.60559082,-0.196228027,-0.721374512,0.272766113,0,-0.17578125,0.21484375,-7.5859375,6.0234375,1.890625,0.298828125,-0.017578125,0.03515625
121,1171495,1471495,0.606201172,-0.19732666,-0.72076416,0.272094727,0,-0.17578125,0.21484375,-7.5859375,6.0234375,1.890625,0.296875,0.099609375,0.06640625
122,1179114,1479114,0.606872559,-0.198364258,-0.720092773,0.27166748,0.06640625,-0.421875,0.4140625,-7.578125,6.0390625,1.84375,0.296875,0.099609375,0.06640625
123,1191635,1491635,0.607421875,-0.199279785,-0.719421387,0.271606445,0.06640625,-0.421875,0.4140625,-7.578125,6.0390625,1.84375,0.142578125,0.1015625,0.115234375
124,1198689,1498689,0.607788086,-0.199768066,-0.718933105,0.271789551,-0.20703125,-0.1796875,0.4140625,-7.5703125,6.0625,1.8046875,0.142578125,0.1015625,0.115234375
125,1211183,1511183,0.607910156,-0.200012207,-0.718566895,0.272338867,-0.20703125,-0.1796875,0.4140625,-7.5703125,6.0625,1.8046875,-0.052734375,0.056640625,0.119140625
126,1219237,1519237,0.607910156,-0.199890137,-0.718322754,0.273010254,0.015625,0.5703125,0.171875,-7.5625,6.078125,1.78125,-0.052734375,0.056640625,0.119140625
127,1231506,1531506,0.608093262,-0.199279785,-0.718017578,0.273803711,0.015625,0.5703125,0.171875,-7.5625,6.078125,1.78125,-0.1953125,0.169921875,0.03515625
128,1240627,1540627,0.608581543,-0.198242188,-0.717468262,0.274780273,0.3125,0.2578125,0.484375,-7.5546875,6.0859375,1.7734375,-0.1953125,0.169921875,0.03515625
129,1251230,1551230,0.609375,-0.196960449,-0.716674805,0.276000977,0.3125,0.2578125,0.484375,-7.5546875,6.0859375,1.7734375,-0.2890625,0.380859375,0.037109375
130,1259243,1559243,0.610351562,-0.195373535,-0.715698242,0.277587891,0.2421875,-0.00390625,0.30078125,-7.5625,6.078125,1.765625,-0.2890625,0.380859375,0.037109375
131,1271139,1571139,0.611450195,-0.193664551,-0.714477539,0.279418945,0.2421875,-0.00390625,0.30078125,-7.5625,6.078125,1.765625,-0.384765625,0.498046875,0.09765625
132,1278470,1578470,0.612609863,-0.191833496,-0.713134766,0.281616211,0.09765625,-0.078125,-0.09765625,-7.5703125,6.078125,1.7421875,-0.384765625,0.498046875,0.09765625
133,1290439,1590439,0.613708496,-0.189819336,-0.711730957,0.284240723,0.09765625,-0.078125,-0.09765625,-7.5703125,6.078125,1.7421875,-0.521484375,0.560546875,0.173828125
134,1299078,1599078,0.614868164,-0.18762207,-0.710205078,0.286987305,-0.0546875,0.41015625,-0.10546875,-7.5703125,6.0859375,1.7109375,-0.521484375,0.560546875,0.173828125
135,1311757,1611757,0.616088867,-0.18536377,-0.708618164,0.289855957,-0.0546875,0.41015625,-0.10546875,-7.5703125,6.0859375,1.7109375,-0.55078125,0.62109375,0.1953125
136,1320558,1620558,0.617370605,-0.183227539,-0.706787109,0.292785645,0.40625,0.44140625,-0.46484375,-7.5703125,6.09375,1.6875,-0.55078125,0.62109375,0.1953125
137,1330965,1630965,0.618713379,-0.181396484,-0.70489502,0.295654297,0.40625,0.44140625,-0.46484375,-7.5703125,6.09375,1.6875,-0.431640625,0.62109375,0.275390625
138,1341244,1641244,0.619995117,-0.179992676,-0.702941895,0.298522949,0.4296875,0.76953125,-0.1640625,-7.5546875,6.109375,1.65625,-0.431640625,0.62109375,0.275390625
139,1351561,1651561,0.62121582,-0.178955078,-0.700866699,0.301391602,0.4296875,0.76953125,-0.1640625,-7.5546875,6.109375,1.65625,-0.34765625,0.630859375,0.392578125
140,1358303,1658303,0.622558594,-0.178100586,-0.698486328,0.3046875,0.2109375,1,-0.1953125,-7.53125,6.1484375,1.609375,-0.34765625,0.630859375,0.392578125
141,1371901,1671901,0.623718262,-0.177368164,-0.696044922,0.308166504,0.2109375,1,-0.1953125,-7.53125,6.1484375,1.609375,-0.41015625,0.6328125,0.5546875
142,1380088,1680088,0.624816895,-0.176635742,-0.693481445,0.312255859,0.25,1.16796875,-0.29296875,-7.4921875,6.2109375,1.5546875,-0.41015625,0.6328125,0.5546875
143,1390858,1690858,0.625793457,-0.175598145,-0.690795898,0.316711426,0.25,1.16796875,-0.29296875,-7.4921875,6.2109375,1.5546875,-0.6328125,0.7578125,0.6796875
144,1398018,1698018,0.626953125,-0.174194336,-0.687561035,0.32220459,0.625,1.1640625,-0.7890625,-7.4453125,6.2890625,1.515625,-0.6328125,0.7578125,0.6796875
145,1409888,1709888,0.628173828,-0.172912598,-0.684143066,0.327819824,0.625,1.1640625,-0.7890625,-7.4453125,6.2890625,1.515625,-0.685546875,0.8984375,0.833984375
146,1418833,1718833,0.629333496,-0.17199707,-0.680664062,0.333312988,0.1640625,1.26171875,-1.32421875,-7.3671875,6.3828125,1.4765625,-0.685546875,0.8984375,0.833984375
147,1431948,1731948,0.630493164,-0.171569824,-0.676818848,0.339111328,0.1640625,1.26171875,-1.32421875,-7.3671875,6.3828125,1.4765625,-0.490234375,0.802734375,0.90625
148,1438286,1738286,0.631591797,-0.171508789,-0.673278809,0.344116211,0.34765625,1.078125,-0.97265625,-7.28125,6.4921875,1.4296875,-0.490234375,0.802734375,0.90625
149,1450323,1750323,0.632751465,-0.171691895,-0.669677734,0.348815918,0.34765625,1.078125,-0.97265625,-7.28125,6.4921875,1.4296875,-0.318359375,0.767578125,0.853515625
150,1459564,1759564,0.634033203,-0.171813965,-0.66607666,0.353271484,0.4375,0.68359375,-0.6796875,-7.1796875,6.6171875,1.3671875,-0.318359375,0.767578125,0.853515625
151,1470366,1770366,0.635314941,-0.17175293,-0.662597656,0.357543945,0.4375,0.68359375,-0.6796875,-7.1796875,6.6171875,1.3671875,-0.34765625,0.751953125,0.724609375
152,1480345,1780345,0.636657715,-0.171630859,-0.659301758,0.361328125,1.046875,0.23828125,-0.92578125,-7.1015625,6.71875,1.3046875,-0.34765625,0.751953125,0.724609375
153,1489696,1789696,0.638366699,-0.17175293,-0.655578613,0.364990234,1.046875,0.23828125,-0.92578125,-7.1015625,6.71875,1.3046875,-0.142578125,0.794921875,0.677734375
154,1498828,1798828,0.640197754,-0.17199707,-0.651977539,0.368103027,0.625,-0.62890625,-1.07421875,-7.0234375,6.8203125,1.2265625,-0.142578125,0.794921875,0.677734375
155,1511880,1811880,0.64251709,-0.172424316,-0.647888184,0.371154785,0.625,-0.62890625,-1.07421875,-7.0234375,6.8203125,1.2265625,0.01953125,0.880859375,0.626953125
156,1518052,1818052,0.644958496,-0.172912598,-0.643798828,0.373779297,0.515625,-0.984375,-0.58203125,-6.953125,6.90625,1.1171875,0.01953125,0.880859375,0.626953125
157,1530093,1830093,0.647460938,-0.173156738,-0.639648438,0.376403809,0.515625,-0.984375,-0.58203125,-6.953125,6.90625,1.1171875,-0.01171875,0.94921875,0.5859375
158,1540484,1840484,0.649841309,-0.172973633,-0.635620117,0.379211426,-0.20703125,-0.49609375,0.27734375,-6.8828125,6.9921875,0.984375,-0.01171875,0.94921875,0.5859375
159,1552247,1852247,0.651916504,-0.172302246,-0.631896973,0.382080078,-0.20703125,-0.49609375,0.27734375,-6.8828125,6.9921875,0.984375,-0.2109375,0.85546875,0.45703125
160,1559843,1859843,0.653808594,-0.171447754,-0.628479004,0.384887695,0.078125,-0.52734375,-0.06640625,-6.8203125,7.0625,0.8671875,-0.2109375,0.85546875,0.45703125
161,1570549,1870549,0.655639648,-0.170593262,-0.62512207,0.387634277,0.078125,-0.52734375,-0.06640625,-6.8203125,7.0625,0.8671875,-0.189453125,0.82421875,0.4140625
162,1581779,1881779,0.657592773,-0.16998291,-0.621765137,0.390014648,0.22265625,-0.7734375,0.12890625,-6.7734375,7.1171875,0.7890625,-0.189453125,0.82421875,0.4140625
163,1590380,1890380,0.659606934,-0.169616699,-0.618530273,0.391906738,0.22265625,-0.7734375,0.12890625,-6.7734375,7.1171875,0.7890625,0.01171875,0.744140625,0.3671875
164,1598336,1898336,0.661682129,-0.169372559,-0.615234375,0.393615723,-0.62890625,-1.44140625,0.7578125,-6.7265625,7.171875,0.6953125,0.01171875,0.744140625,0.3671875
165,1610371,1910371,0.663635254,-0.168884277,-0.612182617,0.395385742,-0.62890625,-1.44140625,0.7578125,-6.7265625,7.171875,0.6953125,-0.1015625,0.787109375,0.32421875
166,1620946,1920946,0.665466309,-0.16784668,-0.609069824,0.397521973,-0.83203125,-0.796875,1.39453125,-6.6796875,7.21875,0.59375,-0.1015625,0.787109375,0.32421875
167,1631810,1931810,0.667236328,-0.166381836,-0.605651855,0.40032959,-0.83203125,-0.796875,1.39453125,-6.6796875,7.21875,0.59375,-0.345703125,0.892578125,0.365234375
168,1640083,1940083,0.668823242,-0.164550781,-0.602050781,0.403808594,-0.02734375,0.765625,0.67578125,-6.640625,7.265625,0.5078125,-0.345703125,0.892578125,0.365234375
169,1650237,1950237,0.670166016,-0.162597656,-0.598327637,0.407897949,-0.02734375,0.765625,0.67578125,-6.640625,7.265625,0.5078125,-0.58984375,0.95703125,0.51171875
170,1661053,1961053,0.671325684,-0.160888672,-0.594726562,0.411987305,0.1484375,1.16796875,-0.00390625,-6.5859375,7.3203125,0.4609375,-0.58984375,0.95703125,0.51171875
171,1671241,1971241,0.672546387,-0.159484863,-0.590759277,0.416259766,0.1484375,1.16796875,-0.00390625,-6.5859375,7.3203125,0.4609375,-0.443359375,0.849609375,0.5546875
172,1677992,1977992,0.673706055,-0.158447266,-0.587402344,0.419555664,-0.6953125,0.5703125,-0.41796875,-6.5078125,7.3828125,0.4140625,-0.443359375,0.849609375,0.5546875
173,1690030,1990030,0.674865723,-0.157592773,-0.584289551,0.422180176,-0.6953125,0.5703125,-0.41796875,-6.5078125,7.3828125,0.4140625,-0.220703125,0.65625,0.34765625
174,1700657,2000657,0.676208496,-0.156677246,-0.581665039,0.424072266,-1.09375,-0.48828125,0.21484375,-6.453125,7.4453125,0.359375,-0.220703125,0.65625,0.34765625
175,1710396,2010396,0.67791748,-0.155456543,-0.579040527,0.425476074,-1.09375,-0.48828125,0.21484375,-6.453125,7.4453125,0.359375,-0.0703125,0.6875,0.11328125
176,1720742,2020742,0.67980957,-0.15411377,-0.576416016,0.426513672,-0.3203125,-1.23828125,0.3125,-6.421875,7.46875,0.296875,-0.0703125,0.6875,0.11328125
177,1731963,2031963,0.682006836,-0.152770996,-0.573486328,0.427368164,-0.3203125,-1.23828125,0.3125,-6.421875,7.46875,0.296875,0.02734375,0.841796875,0.09765625
178,1739934,2039934,0.684448242,-0.151428223,-0.570251465,0.428222656,-0.22265625,-0.87109375,0.21484375,-6.40625,7.484375,0.203125,0.02734375,0.841796875,0.09765625
179,1751261,2051261,0.686706543,-0.150390625,-0.567138672,0.429077148,-0.22265625,-0.87109375,0.21484375,-6.40625,7.484375,0.203125,0.048828125,0.77734375,0.16796875
180,1758013,2058013,0.688781738,-0.149658203,-0.56427002,0.429870605,-0.8515625,-0.8125,0.29296875,-6.390625,7.5,0.0859375,0.048828125,0.77734375,0.16796875
181,1770062,2070062,0.690490723,-0.149169922,-0.561828613,0.430419922,-0.8515625,-0.8125,0.29296875,-6.390625,7.5,0.0859375,0.099609375,0.505859375,0.125
182,1780036,2080036,0.691894531,-0.148864746,-0.560119629,0.430664062,-0.98828125,-0.98046875,0.65625,-6.3671875,7.515625,-0.0078125,0.099609375,0.505859375,0.125
183,1790938,2090938,0.692871094,-0.148620605,-0.558959961,0.430603027,-0.98828125,-0.98046875,0.65625,-6.3671875,7.515625,-0.0078125,0.091796875,0.2265625,0.00390625
184,1798484,2098484,0.693725586,-0.1484375,-0.558105469,0.430419922,-0.4609375,-0.7265625,1.29296875,-6.359375,7.53125,-0.0703125,0.091796875,0.2265625,0.00390625
185,1810323,2110323,0.694580078,-0.148132324,-0.557189941,0.430358887,-0.4609375,-0.7265625,1.29296875,-6.359375,7.53125,-0.0703125,0.078125,0.2734375,0.001953125
186,1820069,2120069,0.695556641,-0.147705078,-0.556091309,0.430297852,0.3046875,-0.03125,1.1796875,-6.359375,7.5234375,-0.109375,0.078125,0.2734375,0.001953125
187,1830977,2130977,0.696411133,-0.147277832,-0.555053711,0.430419922,0.3046875,-0.03125,1.1796875,-6.359375,7.5234375,-0.109375,0.0390625,0.265625,0.025390625
188,1838286,2138286,0.697143555,-0.146972656,-0.554077148,0.430541992,0.265625,0.5,-0.07421875,-6.359375,7.53125,-0.15625,0.0390625,0.265625,0.025390625
189,1854830,2154830,0.697631836,-0.146789551,-0.553344727,0.430786133,0.265625,0.5,-0.07421875,-6.359375,7.53125,-0.15625,0.00390625,0.15234375,0.029296875
190,1858395,2158395,0.697937012,-0.14654541,-0.55291748,0.430847168,-0.390625,-0.34375,-0.51171875,-6.3515625,7.53125,-0.1796875,0.00390625,0.15234375,0.029296875
191,1870853,2170853,0.696411133,-0.147338867,-0.554504395,0.431152344,-0.390625,-0.34375,-0.51171875,-6.3515625,7.53125,-0.1796875,-0.236328125,-0.990234375,0.13671875
192,1879018,2179018,0.691345215,-0.152832031,-0.559875488,0.430358887,-0.66015625,-1.72265625,-3.8828125,-6.3515625,7.53125,-0.140625,-0.236328125,-0.990234375,0.13671875
193,1894614,2194614,0.688964844,-0.158874512,-0.563537598,0.427246094,-0.66015625,-1.72265625,-3.8828125,-6.3515625,7.53125,-0.140625,1.09375,-0.2421875,-0.09765625
194,1898179,2198179,0.693664551,-0.165344238,-0.562011719,0.419128418,1.0234375,0.65234375,1.69921875,-6.3125,7.5703125,-0.015625,1.09375,-0.2421875,-0.09765625
195,1912535,2212535,0.70135498,-0.175048828,-0.558410645,0.406921387,1.0234375,0.65234375,1.69921875,-6.3125,7.5703125,-0.015625,3.25195312,0.193359375,0.041015625
196,1918492,2218492,0.706787109,-0.18371582,-0.555908203,0.397033691,0.86328125,1.74609375,6.78125,-6.3046875,7.546875,-0.4609375,3.25195312,0.193359375,0.041015625
197,1930932,2230932,0.710998535,-0.19140625,-0.553771973,0.388793945,0.86328125,1.74609375,6.78125,-6.3046875,7.546875,-0.4609375,2.49023438,0.10546875,0.162109375
198,1938102,2238102,0.715881348,-0.197814941,-0.550598145,0.38104248,0.2265625,1.1875,0.6640625,-6.28125,7.53125,-0.859375,2.49023438,0.10546875,0.162109375
199,1952766,2252766,0.72052002,-0.203674316,-0.547546387,0.373596191,0.2265625,1.1875,0.6640625,-6.28125,7.53125,-0.859375,1.94726562,0.1015625,0.056640625
200,1960913,2260913,0.723754883,-0.208679199,-0.545593262,0.367370605,0.86328125,1.45703125,0.52734375,-6.265625,7.4921875,-1.21875,1.94726562,0.1015625,0.056640625
201,1971552,2271552,0.725646973,-0.212097168,-0.544555664,0.363098145,0.86328125,1.45703125,0.52734375,-6.265625,7.4921875,-1.21875,0.896484375,-0.056640625,0.005859375
202,1978544,2278544,0.72668457,-0.213928223,-0.544067383,0.360778809,-0.02734375,1.52734375,3.16796875,-6.2578125,7.4609375,-1.4453125,0.896484375,-0.056640625,0.005859375
203,1991338,2291338,0.726623535,-0.214294434,-0.544189453,0.360473633,-0.02734375,1.52734375,3.16796875,-6.2578125,7.4609375,-1.4453125,-0.173828125,-0.078125,0.0234375
204,1997717,2297717,0.725952148,-0.213745117,-0.544616699,0.36151123,-0.1015625,0.31640625,2.36328125,-6.2578125,7.4453125,-1.484375,-0.173828125,-0.078125,0.0234375
205,2015044,2315044,0.725097656,-0.212585449,-0.54510498,0.36315918,-0.1015625,0.31640625,2.36328125,-6.2578125,7.4453125,-1.484375,-0.498046875,0.0078125,0.015625
206,2018611,2318611,0.723999023,-0.21105957,-0.545776367,0.36529541,-0.6015625,-0.58203125,0.46875,-6.2578125,7.4609375,-1.4296875,-0.498046875,0.0078125,0.015625
207,2029755,2329755,0.722045898,-0.20880127,-0.547058105,0.368408203,-0.6015625,-0.58203125,0.46875,-6.2578125,7.4609375,-1.4296875,-1.0390625,-0.177734375,0.00390625
208,2040959,2340959,0.719055176,-0.205993652,-0.549194336,0.372680664,-0.859375,-0.90234375,1.07421875,-6.265625,7.4765625,-1.3046875,-1.0390625,-0.177734375,0.00390625
209,2054617,2354617,0.715026855,-0.202392578,-0.551940918,0.378295898,-0.859375,-0.90234375,1.07421875,-6.265625,7.4765625,-1.3046875,-1.72851562,-0.341796875,0.072265625
210,2062346,2362346,0.71081543,-0.198364258,-0.5546875,0.384277344,-0.5546875,-1.40234375,1.93359375,-6.265625,7.515625,-1.0546875,-1.72851562,-0.341796875,0.072265625
211,2073626,2373626,0.705627441,-0.192871094,-0.557983398,0.391845703,-0.5546875,-1.40234375,1.93359375,-6.265625,7.515625,-1.0546875,-2.30078125,-0.294921875,0.005859375
212,2079289,2379289,0.699829102,-0.186218262,-0.561279297,0.400634766,-0.29296875,-1.125,1.8671875,-6.2578125,7.546875,-0.71875,-2.30078125,-0.294921875,0.005859375
213,2094885,2394885,0.693664551,-0.178588867,-0.56439209,0.410339355,-0.29296875,-1.125,1.8671875,-6.2578125,7.546875,-0.71875,-3.11132812,-0.083984375,0.00390625
214,2098662,2398662,0.687072754,-0.169494629,-0.567138672,0.421386719,0.35546875,-0.23828125,3.6875,-6.2578125,7.578125,-0.28125,-3.11132812,-0.083984375,0.00390625
215,2113017,2413017,0.679077148,-0.157104492,-0.57019043,0.434814453,0.35546875,-0.23828125,3.6875,-6.2578125,7.578125,-0.28125,-4,0.236328125,-0.271484375
216,2125543,2425543,0.672668457,-0.143737793,-0.573486328,0.445007324,-0.35546875,0.23828125,3.9453125,-6.2734375,7.5625,0.265625,-4,0.236328125,-0.271484375
217,2135598,2435598,0.670715332,-0.131652832,-0.57611084,0.448242188,-0.35546875,0.23828125,3.9453125,-6.2734375,7.5625,0.265625,-0.96875,0.79296875,-1.61328125
218,2139751,2439751,0.675476074,-0.127624512,-0.575927734,0.442382812,1.37890625,-3.0859375,-5.5390625,-6.4375,7.3984375,0.6328125,-0.96875,0.79296875,-1.61328125
219,2152275,2452275,0.68572998,-0.133422852,-0.574584961,0.426452637,1.37890625,-3.0859375,-5.5390625,-6.4375,7.3984375,0.6328125,4.66601562,0.015625,-1.13085938
220,2159310,2459310,0.69317627,-0.141967773,-0.57611084,0.409240723,-2.71484375,-2.70703125,-5.171875,-6.6328125,7.25,0.2265625,4.66601562,0.015625,-1.13085938
221,2175115,2475115,0.694763184,-0.146179199,-0.580749512,0.398376465,-2.71484375,-2.70703125,-5.171875,-6.6328125,7.25,0.2265625,0.818359375,-1.14648438,-1.0703125
222,2183434,2483434,0.694030762,-0.147277832,-0.58581543,0.391784668,-0.40625,-0.671875,0.20703125,-6.796875,7.09375,-0.09375,0.818359375,-1.14648438,-1.0703125
223,2192011,2492011,0.69317627,-0.148681641,-0.590881348,0.385070801,-0.40625,-0.671875,0.20703125,-6.796875,7.09375,-0.09375,0.810546875,-1.08203125,-0.873046875
224,2204923,2504923,0.692199707,-0.149658203,-0.595214844,0.379699707,0.00390625,-0.15625,-0.32421875,-6.9375,6.9609375,-0.0625,0.810546875,-1.08203125,-0.873046875
225,2216517,2516517,0.691162109,-0.149658203,-0.599365234,0.375,0.00390625,-0.15625,-0.32421875,-6.9375,6.9609375,-0.0625,0.373046875,-0.7421875,-0.861328125
226,2220665,2520665,0.690307617,-0.148925781,-0.60345459,0.370361328,0.234375,0.734375,-0.53125,-7.0546875,6.8359375,-0.0078125,0.373046875,-0.7421875,-0.861328125
227,2234236,2534236,0.689697266,-0.148132324,-0.60723877,0.365539551,0.234375,0.734375,-0.53125,-7.0546875,6.8359375,-0.0078125,0.48046875,-0.69140625,-0.96875
228,2237927,2537927,0.68927002,-0.147827148,-0.610900879,0.360351562,-0.17578125,0.7578125,-0.84765625,-7.1796875,6.6953125,0.0390625,0.48046875,-0.69140625,-0.96875
229,2254144,2554144,0.688842773,-0.148132324,-0.615112305,0.353759766,-0.17578125,0.7578125,-0.84765625,-7.1796875,6.6953125,0.0390625,0.8359375,-0.865234375,-1.02539062
230,2261865,2561865,0.688476562,-0.148864746,-0.61920166,0.347045898,-0.2734375,1.25390625,-0.29296875,-7.3125,6.546875,0.0625,0.8359375,-0.865234375,-1.02539062
231,2272170,2572170,0.688232422,-0.149597168,-0.623352051,0.33972168,-0.2734375,1.25390625,-0.29296875,-7.3125,6.546875,0.0625,0.912109375,-0.802734375,-1.02734375
232,2285536,2585536,0.688049316,-0.150085449,-0.62689209,0.333312988,0.43359375,1.515625,0.15625,-7.4453125,6.3984375,0.0703125,0.912109375,-0.802734375,-1.02734375
233,2296524,2596524,0.687988281,-0.15032959,-0.630249023,0.326782227,0.43359375,1.515625,0.15625,-7.4453125,6.3984375,0.0703125,0.78515625,-0.62109375,-0.91796875
234,2300672,2600672,0.688110352,-0.150695801,-0.633056641,0.321044922,0.59765625,0.8203125,-0.83984375,-7.5703125,6.25,0.0703125,0.78515625,-0.62109375,-0.91796875
235,2314622,2614622,0.688110352,-0.151123047,-0.635498047,0.316040039,0.59765625,0.8203125,-0.83984375,-7.5703125,6.25,0.0703125,0.580078125,-0.4921875,-0.662109375
236,2318080,2618080,0.687683105,-0.151306152,-0.637695312,0.312255859,0.0390625,1.0234375,-1.03125,-7.6640625,6.125,0.0703125,0.580078125,-0.4921875,-0.662109375
237,2336478,2636478,0.686767578,-0.151733398,-0.640258789,0.308898926,0.0390625,1.0234375,-1.03125,-7.6640625,6.125,0.0703125,0.349609375,-0.615234375,-0.4296875
238,2340605,2640605,0.68560791,-0.152526855,-0.642822266,0.305725098,-0.3515625,0.8046875,-0.90234375,-7.734375,6.0390625,0.09375,0.349609375,-0.615234375,-0.4296875
239,2354158,2654158,0.684326172,-0.153503418,-0.645446777,0.30255127,-0.3515625,0.8046875,-0.90234375,-7.734375,6.0390625,0.09375,0.42578125,-0.708984375,-0.390625
240,2362538,2662538,0.683044434,-0.154541016,-0.648071289,0.299255371,-0.2265625,0.828125,-0.265625,-7.78125,5.9765625,0.1484375,0.42578125,-0.708984375,-0.390625
241,2375206,2675206,0.68157959,-0.155883789,-0.651000977,0.295532227,-0.2265625,0.828125,-0.265625,-7.78125,5.9765625,0.1484375,0.537109375,-0.79296875,-0.421875
242,2378949,2678949,0.680114746,-0.157409668,-0.653869629,0.291809082,-0.21875,0.4296875,0.32421875,-7.828125,5.9140625,0.2109375,0.537109375,-0.79296875,-0.421875
243,2394179,2694179,0.678405762,-0.159240723,-0.657043457,0.287658691,-0.21875,0.4296875,0.32421875,-7.828125,5.9140625,0.2109375,0.587890625,-0.87890625,-0.3828125
244,2397796,2697796,0.676635742,-0.161071777,-0.66003418,0.283874512,0.05078125,0.30078125,0.40625,-7.8671875,5.8515625,0.28125,0.587890625,-0.87890625,-0.3828125
245,2414126,2714126,0.674621582,-0.162841797,-0.663146973,0.280395508,0.05078125,0.30078125,0.40625,-7.8671875,5.8515625,0.28125,0.4140625,-0.857421875,-0.29296875
246,2421831,2721831,0.672668457,-0.164367676,-0.665893555,0.277648926,0.04296875,-0.140625,-0.015625,-7.8984375,5.796875,0.359375,0.4140625,-0.857421875,-0.29296875
247,2432141,2732141,0.670593262,-0.166015625,-0.668640137,0.275024414,0.04296875,-0.140625,-0.015625,-7.8984375,5.796875,0.359375,0.349609375,-0.771484375,-0.1640625
248,2446702,2746702,0.668579102,-0.167663574,-0.671264648,0.272583008,0.52734375,-0.07421875,-0.6015625,-7.921875,5.765625,0.4453125,0.349609375,-0.771484375,-0.1640625
249,2457624,2757624,0.666564941,-0.169372559,-0.67376709,0.270202637,0.52734375,-0.07421875,-0.6015625,-7.921875,5.765625,0.4453125,0.357421875,-0.796875,-0.16796875
250,2461770,2761770,0.664550781,-0.171081543,-0.676391602,0.26763916,0.08203125,0.10546875,-0.10546875,-7.9375,5.7421875,0.5234375,0.357421875,-0.796875,-0.16796875
251,2473089,2773089,0.662475586,-0.172851562,-0.679016113,0.264953613,0.08203125,0.10546875,-0.10546875,-7.9375,5.7421875,0.5234375,0.392578125,-0.806640625,-0.193359375
252,2479504,2779504,0.660400391,-0.174560547,-0.68157959,0.262390137,0.05859375,0.01171875,0.125,-7.953125,5.71875,0.6015625,0.392578125,-0.806640625,-0.193359375
253,2495621,2795621,0.658325195,-0.176147461,-0.684082031,0.260009766,0.05859375,0.01171875,0.125,-7.953125,5.71875,0.6015625,0.3203125,-0.76953125,-0.146484375
254,2499928,2799928,0.656311035,-0.177734375,-0.686401367,0.257873535,0.22265625,-0.00390625,0.0390625,-7.9609375,5.6953125,0.6875,0.3203125,-0.76953125,-0.146484375
255,2513829,2813829,0.654174805,-0.17956543,-0.688842773,0.255615234,0.22265625,-0.00390625,0.0390625,-7.9609375,5.6953125,0.6875,0.326171875,-0.748046875,-0.08984375
256,2522624,2822624,0.652160645,-0.181213379,-0.690979004,0.25378418,0.18359375,0.203125,-0.23828125,-7.9609375,5.6796875,0.7734375,0.326171875,-0.748046875,-0.08984375
257,2535637,2835637,0.649963379,-0.182861328,-0.693237305,0.251953125,0.18359375,0.203125,-0.23828125,-7.9609375,5.6796875,0.7734375,0.228515625,-0.70703125,-0.052734375
258,2539862,2839862,0.648010254,-0.184204102,-0.695251465,0.250488281,0.48828125,0.48046875,-0.171875,-7.9609375,5.671875,0.859375,0.228515625,-0.70703125,-0.052734375
259,2553790,2853790,0.646118164,-0.18560791,-0.69720459,0.248962402,0.48828125,0.48046875,-0.171875,-7.9609375,5.671875,0.859375,0.2421875,-0.6171875,-0.064453125
260,2558408,2858408,0.644470215,-0.186950684,-0.698974609,0.247436523,-0.09375,0.375,-0.328125,-7.953125,5.6640625,0.9375,0.2421875,-0.6171875,-0.064453125
261,2574628,2874628,0.642822266,-0.188232422,-0.700683594,0.245910645,-0.09375,0.375,-0.328125,-7.953125,5.6640625,0.9375,0.203125,-0.509765625,-0.056640625
262,2578382,2878382,0.641479492,-0.189331055,-0.701965332,0.244750977,0.3203125,0.375,-0.2734375,-7.9453125,5.6640625,1,0.203125,-0.509765625,-0.056640625
263,2593225,2893225,0.640319824,-0.190368652,-0.703063965,0.243713379,0.3203125,0.375,-0.2734375,-7.9453125,5.6640625,1,0.1796875,-0.37109375,0.00390625
264,2602628,2902628,0.639282227,-0.191467285,-0.704101562,0.242797852,0.234375,0.18359375,-0.3984375,-7.9375,5.6640625,1.046875,0.1796875,-0.37109375,0.00390625
265,2615628,2915628,0.638366699,-0.192504883,-0.704956055,0.241943359,0.234375,0.18359375,-0.3984375,-7.9375,5.6640625,1.046875,0.16015625,-0.298828125,0.0078125
266,2619771,2919771,0.637634277,-0.193237305,-0.705627441,0.241333008,0.19921875,0.41015625,-0.16796875,-7.9375,5.6640625,1.0859375,0.16015625,-0.298828125,0.0078125
267,2637612,2937612,0.637023926,-0.193664551,-0.706176758,0.240905762,0.19921875,0.41015625,-0.16796875,-7.9375,5.6640625,1.0859375,0.0234375,-0.154296875,-0.01171875
268,2639455,2939455,0.63659668,-0.193725586,-0.706604004,0.240661621,0.3046875,0.44921875,-0.15234375,-7.9296875,5.6640625,1.109375,0.0234375,-0.154296875,-0.01171875
269,2656938,2956938,0.636474609,-0.19354248,-0.706848145,0.240478516,0.3046875,0.44921875,-0.15234375,-7.9296875,5.6640625,1.109375,-0.021484375,-0.029296875,-0.068359375
270,2660960,2960960,0.636535645,-0.19317627,-0.706970215,0.240234375,0.15234375,0.18359375,-0.1328125,-7.9296875,5.6640625,1.125,-0.021484375,-0.029296875,-0.068359375
271,2672449,2972449,0.636779785,-0.192565918,-0.706970215,0.240112305,0.15234375,0.18359375,-0.1328125,-7.9296875,5.6640625,1.125,-0.06640625,0.083984375,-0.10546875
272,2684586,2984586,0.637145996,-0.191833496,-0.706848145,0.24005127,0.20703125,0.16015625,-0.1171875,-7.9453125,5.6484375,1.109375,-0.06640625,0.083984375,-0.10546875
273,2695258,2995258,0.637634277,-0.190979004,-0.706542969,0.240234375,0.20703125,0.16015625,-0.1171875,-7.9453125,5.6484375,1.109375,-0.119140625,0.17578125,-0.078125
274,2699236,2999236,0.638183594,-0.190063477,-0.706176758,0.240600586,0.296875,0.21484375,0.08203125,-7.9609375,5.6328125,1.1015625,-0.119140625,0.17578125,-0.078125
275,2713173,3013173,0.63873291,-0.189086914,-0.705749512,0.241271973,0.296875,0.21484375,0.08203125,-7.9609375,5.6328125,1.1015625,-0.19921875,0.185546875,-0.017578125
276,2719828,3019828,0.639160156,-0.188049316,-0.705322266,0.24206543,0.15234375,0.296875,0.2890625,-7.96875,5.625,1.0859375,-0.19921875,0.185546875,-0.017578125
277,2734526,3034526,0.639587402,-0.186889648,-0.70489502,0.243103027,0.15234375,0.296875,0.2890625,-7.96875,5.625,1.0859375,-0.2734375,0.23046875,0.009765625
278,2743221,3043221,0.640075684,-0.18560791,-0.704406738,0.244262695,-0.15234375,0.3828125,0.40625,-7.96875,5.6171875,1.0859375,-0.2734375,0.23046875,0.009765625
279,2752858,3052858,0.640441895,-0.183959961,-0.703979492,0.245849609,-0.15234375,0.3828125,0.40625,-7.96875,5.6171875,1.0859375,-0.419921875,0.23828125,0.01953125
280,2762154,3062154,0.64074707,-0.182189941,-0.703552246,0.247619629,-0.26171875,0.4296875,0.328125,-7.9765625,5.609375,1.0859375,-0.419921875,0.23828125,0.01953125
281,2773945,3073945,0.640991211,-0.180175781,-0.70300293,0.249816895,-0.26171875,0.4296875,0.328125,-7.9765625,5.609375,1.0859375,-0.560546875,0.3046875,0.083984375
282,2782148,3082148,0.641357422,-0.178100586,-0.702392578,0.252075195,0.08203125,0.46484375,0.46484375,-7.9765625,5.609375,1.1015625,-0.560546875,0.3046875,0.083984375
283,2793419,3093419,0.641845703,-0.17578125,-0.701660156,0.254516602,0.08203125,0.46484375,0.46484375,-7.9765625,5.609375,1.1015625,-0.55078125,0.359375,0.05859375
284,2799039,3099039,0.642333984,-0.173522949,-0.700927734,0.256774902,0.0390625,0.16015625,-0.078125,-7.96875,5.609375,1.109375,-0.55078125,0.359375,0.05859375
285,2817643,3117643,0.642700195,-0.171508789,-0.700378418,0.258789062,0.0390625,0.16015625,-0.078125,-7.96875,5.609375,1.109375,-0.513671875,0.291015625,0.03125
286,2821773,3121773,0.643127441,-0.169433594,-0.699768066,0.260803223,-0.03125,0.11328125,-0.19921875,-7.9765625,5.6171875,1.1171875,-0.513671875,0.291015625,0.03125
287,2832676,3132676,0.643676758,-0.167419434,-0.698974609,0.262817383,-0.03125,0.11328125,-0.19921875,-7.9765625,5.6171875,1.1171875,-0.49609375,0.392578125,0.064453125
288,2842146,3142146,0.644470215,-0.165466309,-0.697875977,0.265075684,0.19921875,0.08203125,-0.16015625,-7.9765625,5.609375,1.1171875,-0.49609375,0.392578125,0.064453125
289,2854693,3154693,0.645446777,-0.163696289,-0.696411133,0.267578125,0.19921875,0.08203125,-0.16015625,-7.9765625,5.609375,1.1171875,-0.46484375,0.53125,0.234375
290,2862922,3162922,0.64642334,-0.16229248,-0.694702148,0.270446777,0.265625,0.23046875,-0.3359375,-7.96875,5.6171875,1.1015625,-0.46484375,0.53125,0.234375
291,2873266,3173266,0.647521973,-0.161071777,-0.692565918,0.273986816,0.265625,0.23046875,-0.3359375,-7.96875,5.6171875,1.1015625,-0.484375,0.607421875,0.447265625
292,2878827,3178827,0.648620605,-0.16003418,-0.690246582,0.277832031,0.625,0.71875,-0.3359375,-7.9453125,5.6640625,1.0625,-0.484375,0.607421875,0.447265625
293,2897194,3197194,0.649536133,-0.159240723,-0.687805176,0.282226562,0.625,0.71875,-0.3359375,-7.9453125,5.6640625,1.0625,-0.587890625,0.60546875,0.66796875
294,2901717,3201717,0.650085449,-0.158630371,-0.68548584,0.28692627,0.80859375,1.40625,-0.44921875,-7.8984375,5.7421875,1.0234375,-0.587890625,0.60546875,0.66796875
295,2913283,3213283,0.650634766,-0.157958984,-0.682861328,0.292297363,0.80859375,1.40625,-0.44921875,-7.8984375,5.7421875,1.0234375,-0.66015625,0.62109375,0.77734375
296,2923158,3223158,0.651245117,-0.157287598,-0.679992676,0.297790527,0.88671875,0.9921875,-0.62109375,-7.8203125,5.8515625,1,-0.66015625,0.62109375,0.77734375
297,2937180,3237180,0.651977539,-0.156677246,-0.677062988,0.303283691,0.88671875,0.9921875,-0.62109375,-7.8203125,5.8515625,1,-0.693359375,0.755859375,0.876953125
298,2941330,3241330,0.652893066,-0.156066895,-0.67364502,0.309143066,1.06640625,0.99609375,-0.55859375,-7.734375,5.9609375,0.9765625,-0.693359375,0.755859375,0.876953125
299,2952189,3252189,0.654052734,-0.155273438,-0.669677734,0.315612793,1.06640625,0.99609375,-0.55859375,-7.734375,5.9609375,0.9765625,-0.755859375,0.9453125,0.990234375
300,2960022,3260022,0.655212402,-0.154541016,-0.665588379,0.32208252,0.92578125,0.75,-0.625,-7.6328125,6.09375,0.9296875,-0.755859375,0.9453125,0.990234375
301,2977559,3277559,0.656494141,-0.153808594,-0.661132812,0.329040527,0.92578125,0.75,-0.625,-7.6328125,6.09375,0.9296875,-0.767578125,0.994140625,1.06835938
302,2981678,3281678,0.657775879,-0.153320312,-0.656494141,0.33581543,1.0859375,0.140625,-0.9140625,-7.5234375,6.2421875,0.875,-0.767578125,0.994140625,1.06835938
303,2992992,3292992,0.659362793,-0.153198242,-0.651733398,0.342041016,1.0859375,0.140625,-0.9140625,-7.5234375,6.2421875,0.875,-0.50390625,1.02734375,1.0703125
304,3001148,3301148,0.661132812,-0.153686523,-0.646911621,0.34753418,0.921875,-0.46875,-1.56640625,-7.3984375,6.390625,0.796875,-0.50390625,1.02734375,1.0703125
305,3016337,3316337,0.663146973,-0.154968262,-0.642150879,0.351989746,0.921875,-0.46875,-1.56640625,-7.3984375,6.390625,0.796875,-0.009765625,0.91796875,1.02148438
306,3020467,3320467,0.665527344,-0.157104492,-0.637207031,0.35559082,0.1171875,-0.9296875,-1.46484375,-7.28125,6.546875,0.6953125,-0.009765625,0.91796875,1.02148438
307,3035226,3335226,0.668273926,-0.159423828,-0.632141113,0.358276367,0.1171875,-0.9296875,-1.46484375,-7.28125,6.546875,0.6953125,0.34765625,0.970703125,0.888671875
308,3038681,3338681,0.671142578,-0.161376953,-0.627319336,0.360534668,-1.04296875,-0.10546875,-0.6875,-7.15625,6.6796875,0.53125,0.34765625,0.970703125,0.888671875
309,3056307,3356307,0.674255371,-0.162963867,-0.622131348,0.362976074,-1.04296875,-0.10546875,-0.6875,-7.15625,6.6796875,0.53125,0.201171875,1.0234375,0.72265625
310,3060446,3360446,0.676940918,-0.163818359,-0.617248535,0.365905762,-1.06640625,0.421875,-0.95703125,-7.0546875,6.8046875,0.34375,0.201171875,1.0234375,0.72265625
311,3073405,3373405,0.679016113,-0.163879395,-0.612609863,0.369812012,-1.06640625,0.421875,-0.95703125,-7.0546875,6.8046875,0.34375,-0.357421875,1.015625,0.80859375
312,3081619,3381619,0.680725098,-0.163452148,-0.607727051,0.37487793,0.5546875,0.50390625,-0.7109375,-6.953125,6.9140625,0.2109375,-0.357421875,1.015625,0.80859375
313,3094777,3394777,0.682434082,-0.162475586,-0.602600098,0.380493164,0.5546875,0.50390625,-0.7109375,-6.953125,6.9140625,0.2109375,-0.669921875,1.28125,0.916015625
314,3098521,3398521,0.684509277,-0.160827637,-0.596862793,0.386474609,1.05078125,1.11328125,-0.48046875,-6.8359375,7.03125,0.1328125,-0.669921875,1.28125,0.916015625
315,3112459,3412459,0.687255859,-0.158874512,-0.590209961,0.392578125,1.05078125,1.11328125,-0.48046875,-6.8359375,7.03125,0.1328125,-0.529296875,1.58398438,0.822265625
316,3118137,3418137,0.690429688,-0.157592773,-0.583557129,0.397338867,0.625,0.6875,-0.62890625,-6.71875,7.1484375,0.015625,-0.529296875,1.58398438,0.822265625
317,3136272,3436272,0.693908691,-0.157714844,-0.577087402,0.400695801,0.625,0.6875,-0.62890625,-6.71875,7.1484375,0.015625,0.208984375,1.30859375,0.806640625
318,3140417,3440417,0.69744873,-0.159179688,-0.570922852,0.402832031,-1.22265625,-0.72265625,-0.0390625,-6.59375,7.2578125,-0.15625,0.208984375,1.30859375,0.806640625
319,3153005,3453005,0.700683594,-0.161743164,-0.565368652,0.40411377,-1.22265625,-0.72265625,-0.0390625,-6.59375,7.2578125,-0.15625,0.6328125,0.869140625,0.830078125
320,3161942,3461942,0.703674316,-0.164550781,-0.560302734,0.404724121,-1.8515625,-0.75390625,0.40234375,-6.4609375,7.3671875,-0.3671875,0.6328125,0.869140625,0.830078125
321,3176275,3476275,0.706665039,-0.167053223,-0.555480957,0.405090332,-1.8515625,-0.75390625,0.40234375,-6.4609375,7.3671875,-0.3671875,0.626953125,0.8359375,0.62109375
322,3180423,3480423,0.709899902,-0.169006348,-0.550720215,0.405273438,-0.9765625,-0.41796875,0.8359375,-6.34375,7.453125,-0.5703125,0.626953125,0.8359375,0.62109375
323,3193040,3493040,0.713195801,-0.170410156,-0.545959473,0.405334473,-0.9765625,-0.41796875,0.8359375,-6.34375,7.453125,-0.5703125,0.548828125,0.9453125,0.435546875
324,3198599,3498599,0.716308594,-0.171386719,-0.541442871,0.405395508,-1.13671875,-0.2890625,0.5703125,-6.2578125,7.515625,-0.765625,0.548828125,0.9453125,0.435546875
325,3216270,3516270,0.719299316,-0.172058105,-0.537475586,0.405151367,-1.13671875,-0.2890625,0.5703125,-6.2578125,7.515625,-0.765625,0.5234375,0.828125,0.25390625
326,3220425,3520425,0.722473145,-0.172668457,-0.533691406,0.40423584,-2.203125,-0.55859375,0.7578125,-6.1875,7.5546875,-0.953125,0.5234375,0.828125,0.25390625
327,3233810,3533810,0.725463867,-0.173095703,-0.530761719,0.402587891,-2.203125,-0.55859375,0.7578125,-6.1875,7.5546875,-0.953125,0.634765625,0.55859375,-0.0703125
328,3243180,3543180,0.727905273,-0.173217773,-0.528991699,0.400390625,-2.6953125,-1.28125,1.25390625,-6.15625,7.546875,-1.140625,0.634765625,0.55859375,-0.0703125
329,3254728,3554728,0.730102539,-0.172790527,-0.528198242,0.397583008,-2.6953125,-1.28125,1.25390625,-6.15625,7.546875,-1.140625,0.453125,0.134765625,-0.41796875
330,3263808,3563808,0.731079102,-0.172302246,-0.528625488,0.395507812,-1.8203125,-1.5,1.9921875,-6.1875,7.5,-1.265625,0.453125,0.134765625,-0.41796875
331,3272878,3572878,0.731079102,-0.17199707,-0.529663086,0.394165039,-1.8203125,-1.5,1.9921875,-6.1875,7.5,-1.265625,0.0390625,-0.25,-0.158203125
332,3278446,3578446,0.730529785,-0.172424316,-0.530517578,0.393859863,0.234375,-0.03515625,1.9375,-6.25,7.453125,-1.2890625,0.0390625,-0.25,-0.158203125
333,3296227,3596227,0.729919434,-0.173217773,-0.530700684,0.39440918,0.234375,-0.03515625,1.9375,-6.25,7.453125,-1.2890625,-0.076171875,-0.048828125,0.25390625
334,3300216,3600216,0.729675293,-0.17376709,-0.530090332,0.395446777,1.4140625,1.59375,-1.265625,-6.2421875,7.46875,-1.265625,-0.076171875,-0.048828125,0.25390625
335,3312808,3612808,0.729980469,-0.173950195,-0.528930664,0.39630127,1.4140625,1.59375,-1.265625,-6.2421875,7.46875,-1.265625,0.046875,0.26953125,0.138671875
336,3322049,3622049,0.730651855,-0.174438477,-0.528015137,0.396240234,0.03515625,-0.7265625,-2.453125,-6.203125,7.4921875,-1.265625,0.046875,0.26953125,0.138671875
337,3336327,3636327,0.730895996,-0.17578125,-0.527954102,0.395141602,0.03515625,-0.7265625,-2.453125,-6.203125,7.4921875,-1.265625,0.373046875,-0.2578125,0.064453125
338,3340083,3640083,0.730712891,-0.17755127,-0.528625488,0.393859863,-1.4375,-0.7734375,1.30859375,-6.1875,7.5,-1.3125,0.373046875,-0.2578125,0.064453125
339,3352690,3652690,0.73034668,-0.179016113,-0.529174805,0.393005371,-1.4375,-0.7734375,1.30859375,-6.1875,7.5,-1.3125,0.15234375,-0.17578125,0.103515625
340,3358240,3658240,0.730163574,-0.17980957,-0.52923584,0.393005371,0.25,0.14453125,1.9609375,-6.1875,7.5,-1.3125,0.15234375,-0.17578125,0.103515625
341,3375690,3675690,0.729980469,-0.179931641,-0.528991699,0.393554688,0.25,0.14453125,1.9609375,-6.1875,7.5,-1.3125,-0.126953125,0.02734375,0.09375
342,3379675,3679675,0.729553223,-0.17980957,-0.529052734,0.394287109,-0.80078125,0.24609375,0.16015625,-6.171875,7.515625,-1.3125,-0.126953125,0.02734375,0.09375
343,3391648,3691648,0.72869873,-0.179504395,-0.529785156,0.395141602,-0.80078125,0.24609375,0.16015625,-6.171875,7.515625,-1.3125,-0.267578125,-0.19921875,-0.021484375
344,3406455,3706455,0.727600098,-0.179016113,-0.531005859,0.395751953,-1.26953125,-0.03125,0.61328125,-6.1640625,7.5234375,-1.265625,-0.267578125,-0.19921875,-0.021484375
345,3417385,3717385,0.726379395,-0.178161621,-0.532592773,0.396179199,-1.26953125,-0.03125,0.61328125,-6.1640625,7.5234375,-1.265625,-0.322265625,-0.294921875,-0.21875
346,3421518,3721518,0.725158691,-0.176940918,-0.534545898,0.396362305,-1.32421875,-1.1328125,1.17578125,-6.1875,7.515625,-1.1796875,-0.322265625,-0.294921875,-0.21875
347,3433143,3733143,0.723937988,-0.175292969,-0.536865234,0.396179199,-1.32421875,-1.1328125,1.17578125,-6.1875,7.515625,-1.1796875,-0.310546875,-0.37109375,-0.4609375
348,3438713,3738713,0.72277832,-0.173400879,-0.539611816,0.395446777,-1.21484375,-2.05859375,0.9375,-6.2578125,7.484375,-1.09375,-0.310546875,-0.37109375,-0.4609375
349,3455623,3755623,0.721618652,-0.171264648,-0.542663574,0.394226074,-1.21484375,-2.05859375,0.9375,-6.2578125,7.484375,-1.09375,-0.24609375,-0.466796875,-0.712890625
350,3459377,3759377,0.720458984,-0.168945312,-0.546142578,0.39263916,-1.2734375,-2.296875,0.73046875,-6.3515625,7.4140625,-1,-0.24609375,-0.466796875,-0.712890625
351,3471302,3771302,0.718994141,-0.16619873,-0.550354004,0.39050293,-1.2734375,-2.296875,0.73046875,-6.3515625,7.4140625,-1,-0.2421875,-0.654296875,-0.9296875
352,3484881,3784881,0.717529297,-0.163513184,-0.554870605,0.388000488,-1.28515625,-1.92578125,0.62109375,-6.4921875,7.3125,-0.890625,-0.2421875,-0.654296875,-0.9296875
353,3496227,3796227,0.716064453,-0.160827637,-0.559631348,0.38494873,-1.28515625,-1.92578125,0.62109375,-6.4921875,7.3125,-0.890625,-0.083984375,-0.7734375,-1.12109375
354,3500369,3800369,0.714660645,-0.157836914,-0.564880371,0.381103516,-0.78515625,-1.74609375,0.3046875,-6.6484375,7.171875,-0.765625,-0.083984375,-0.7734375,-1.12109375
355,3513960,3813960,0.713439941,-0.154663086,-0.570068359,0.37701416,-0.78515625,-1.74609375,0.3046875,-6.6484375,7.171875,-0.765625,-0.03125,-0.748046875,-1.30859375
356,3517580,3817580,0.712341309,-0.151306152,-0.575012207,0.37286377,-0.63671875,-1.16015625,0.42578125,-6.8359375,7.0078125,-0.65625,-0.03125,-0.748046875,-1.30859375
357,3534236,3834236,0.711242676,-0.147521973,-0.580383301,0.368225098,-0.63671875,-1.16015625,0.42578125,-6.8359375,7.0078125,-0.65625,-0.017578125,-0.7109375,-1.43164062
358,3537981,3837981,0.710144043,-0.143737793,-0.585449219,0.363708496,-0.203125,-0.390625,0.54296875,-7.0390625,6.8125,-0.546875,-0.017578125,-0.7109375,-1.43164062
359,3550879,3850879,0.70892334,-0.139709473,-0.590942383,0.358764648,-0.203125,-0.390625,0.54296875,-7.0390625,6.8125,-0.546875,0.013671875,-0.759765625,-1.45507812
360,3565100,3865100,0.707763672,-0.136291504,-0.595947266,0.354003906,-0.56640625,0.2421875,0.12890625,-7.25,6.6015625,-0.4375,0.013671875,-0.759765625,-1.45507812
361,3575820,3875820,0.706420898,-0.1328125,-0.60144043,0.348632812,-0.56640625,0.2421875,0.12890625,-7.25,6.6015625,-0.4375,0.123046875,-0.84765625,-1.4296875
362,3580053,3880053,0.70501709,-0.130004883,-0.606750488,0.343322754,-0.37890625,0.99609375,0.640625,-7.4375,6.3828125,-0.3359375,0.123046875,-0.84765625,-1.4296875
363,3593669,3893669,0.703186035,-0.127685547,-0.612792969,0.337280273,-0.37890625,0.99609375,0.640625,-7.4375,6.3828125,-0.3359375,0.328125,-1.1015625,-1.33398438
364,3598290,3898290,0.701049805,-0.126159668,-0.618591309,0.331604004,-0.7265625,1.24609375,0.32421875,-7.625,6.171875,-0.2109375,0.328125,-1.1015625,-1.33398438
365,3616570,3916570,0.698303223,-0.124816895,-0.62512207,0.325500488,-0.7265625,1.24609375,0.32421875,-7.625,6.171875,-0.2109375,0.275390625,-1.29296875,-1.2265625
366,3618046,3918046,0.6953125,-0.123352051,-0.631530762,0.320129395,-0.37109375,1.5625,0.63671875,-7.7890625,5.96875,-0.0625,0.275390625,-1.29296875,-1.2265625
367,3634265,3934265,0.692138672,-0.121765137,-0.637817383,0.315185547,-0.37109375,1.5625,0.63671875,-7.7890625,5.96875,-0.0625,0.109375,-1.29492188,-1.16015625
368,3642248,3942248,0.689025879,-0.120178223,-0.643676758,0.31060791,-0.27734375,1.51953125,-0.13671875,-7.921875,5.78125,0.1328125,0.109375,-1.29492188,-1.16015625
369,3655221,3955221,0.68560791,-0.118652344,-0.649902344,0.305786133,-0.27734375,1.51953125,-0.13671875,-7.921875,5.78125,0.1328125,0.119140625,-1.24804688,-1.07421875
370,3659648,3959648,0.682617188,-0.117492676,-0.655334473,0.301330566,-0.15234375,0.55078125,-0.8984375,-8.046875,5.6015625,0.3203125,0.119140625,-1.24804688,-1.07421875
371,3672700,3972700,0.679443359,-0.116760254,-0.660888672,0.296691895,-0.15234375,0.55078125,-0.8984375,-8.046875,5.6015625,0.3203125,0.21875,-1.16796875,-0.86328125
372,3679176,3979176,0.676208496,-0.116638184,-0.66607666,0.292358398,-0.1953125,0.4375,-0.76953125,-8.15625,5.4453125,0.5,0.21875,-1.16796875,-0.86328125
373,3693829,3993829,0.672729492,-0.117248535,-0.671386719,0.287963867,-0.1953125,0.4375,-0.76953125,-8.15625,5.4453125,0.5,0.400390625,-1.37109375,-0.689453125
374,3698874,3998874,0.669250488,-0.118408203,-0.676513672,0.283630371,0.10546875,0.6796875,-1.2109375,-8.2265625,5.3203125,0.671875,0.400390625,-1.37109375,-0.689453125
375,3713631,4013631,0.665527344,-0.120056152,-0.681884766,0.278747559,0.10546875,0.6796875,-1.2109375,-8.2265625,5.3203125,0.671875,0.5546875,-1.36914062,-0.58984375
376,3722631,4022631,0.66217041,-0.122009277,-0.686584473,0.274291992,0.07421875,0.734375,-0.85546875,-8.2734375,5.2265625,0.8515625,0.5546875,-1.36914062,-0.58984375
377,3735590,4035590,0.658691406,-0.124389648,-0.691345215,0.26953125,0.07421875,0.734375,-0.85546875,-8.2734375,5.2265625,0.8515625,0.623046875,-1.26953125,-0.4609375
378,3739718,4039718,0.655578613,-0.126586914,-0.695556641,0.265319824,0.6015625,0.58984375,-0.3671875,-8.3046875,5.140625,1.015625,0.623046875,-1.26953125,-0.4609375
379,3754043,4054043,0.652160645,-0.129089355,-0.699951172,0.260925293,0.6015625,0.58984375,-0.3671875,-8.3046875,5.140625,1.015625,0.62890625,-1.26953125,-0.376953125
380,3757664,4057664,0.648742676,-0.131774902,-0.704101562,0.256774902,-0.5703125,0.22265625,-1.203125,-8.3203125,5.0859375,1.1640625,0.62890625,-1.26953125,-0.376953125
381,3774524,4074524,0.644897461,-0.135253906,-0.708740234,0.25201416,-0.5703125,0.22265625,-1.203125,-8.3203125,5.0859375,1.1640625,0.810546875,-1.3984375,-0.341796875
382,3778260,4078260,0.641357422,-0.138549805,-0.712890625,0.247436523,0.015625,0.109375,-0.546875,-8.328125,5.046875,1.3125,0.810546875,-1.3984375,-0.341796875
383,3793466,4093466,0.637878418,-0.141723633,-0.71697998,0.242797852,0.015625,0.109375,-0.546875,-8.328125,5.046875,1.3125,0.708984375,-1.203125,-0.3359375
384,3802987,4102987,0.634765625,-0.144592285,-0.72052002,0.238769531,0.55078125,0.1875,0.15234375,-8.328125,5.0078125,1.453125,0.708984375,-1.203125,-0.3359375
385,3814772,4114772,0.631469727,-0.147521973,-0.724060059,0.234924316,0.55078125,0.1875,0.15234375,-8.328125,5.0078125,1.453125,0.59375,-1.13671875,-0.208984375
386,3818513,4118513,0.628295898,-0.150146484,-0.727355957,0.231750488,0.765625,0.6328125,0.05859375,-8.3125,4.984375,1.5859375,0.59375,-1.13671875,-0.208984375
387,3833401,4133401,0.625,-0.15246582,-0.73059082,0.228759766,0.765625,0.6328125,0.05859375,-8.3125,4.984375,1.5859375,0.419921875,-1.04492188,-0.181640625
388,3838022,4138022,0.621948242,-0.154418945,-0.733581543,0.226196289,0.51953125,0.37890625,-0.06640625,-8.296875,4.96875,1.7109375,0.419921875,-1.04492188,-0.181640625
389,3854570,4154570,0.61895752,-0.156188965,-0.73651123,0.223693848,0.51953125,0.37890625,-0.06640625,-8.296875,4.96875,1.7109375,0.341796875,-0.900390625,-0.169921875
390,3858315,4158315,0.616210938,-0.15802002,-0.739135742,0.221313477,0.51171875,0.1640625,-0.61328125,-8.2890625,4.953125,1.8359375,0.341796875,-0.900390625,-0.169921875
391,3873187,4173187,0.61328125,-0.160095215,-0.741882324,0.218811035,0.51171875,0.1640625,-0.61328125,-8.2890625,4.953125,1.8359375,0.40234375,-0.95703125,-0.125
392,3881951,4181951,0.610229492,-0.16217041,-0.744689941,0.216308594,0.41015625,0.09765625,-0.15625,-8.265625,4.9453125,1.953125,0.40234375,-0.95703125,-0.125
393,3895598,4195598,0.607543945,-0.164001465,-0.747131348,0.213989258,0.41015625,0.09765625,-0.15625,-8.265625,4.9453125,1.953125,0.359375,-0.791015625,-0.13671875
394,3899724,4199724,0.605224609,-0.165771484,-0.749267578,0.211791992,0.88671875,0.06640625,-0.65625,-8.2421875,4.9375,2.0703125,0.359375,-0.791015625,-0.13671875
395,3913228,4213228,0.602661133,-0.16784668,-0.751586914,0.209289551,0.88671875,0.06640625,-0.65625,-8.2421875,4.9375,2.0703125,0.39453125,-0.76953125,-0.1171875
396,3917831,4217831,0.600280762,-0.16973877,-0.753662109,0.20703125,0.10546875,0.33984375,-0.43359375,-8.2265625,4.9296875,2.15625,0.39453125,-0.76953125,-0.1171875
397,3934244,4234244,0.598083496,-0.171264648,-0.755554199,0.205078125,0.10546875,0.33984375,-0.43359375,-8.2265625,4.9296875,2.15625,0.294921875,-0.6640625,-0.12890625
398,3937988,4237988,0.596252441,-0.172546387,-0.757202148,0.203308105,0.578125,0.609375,-0.21484375,-8.203125,4.9296875,2.2421875,0.294921875,-0.6640625,-0.12890625
399,3952847,4252847,0.594421387,-0.17388916,-0.758728027,0.201782227,0.578125,0.609375,-0.21484375,-8.203125,4.9296875,2.2421875,0.232421875,-0.5234375,-0.046875
400,3959974,4259974,0.592834473,-0.175048828,-0.760009766,0.200683594,0.6015625,0.734375,-0.24609375,-8.1875,4.921875,2.3125,0.232421875,-0.5234375,-0.046875
401,3973505,4273505,0.591430664,-0.175964355,-0.761108398,0.200073242,0.6015625,0.734375,-0.24609375,-8.1875,4.921875,2.3125,0.099609375,-0.359375,0.046875
402,3979260,4279260,0.590148926,-0.176818848,-0.761962891,0.199707031,0.76953125,0.83203125,-0.453125,-8.1640625,4.9375,2.3671875,0.099609375,-0.359375,0.046875
403,3992723,4292723,0.588928223,-0.177734375,-0.762695312,0.199645996,0.76953125,0.83203125,-0.453125,-8.1640625,4.9375,2.3671875,0.05078125,-0.259765625,0.130859375
404,3998377,4298377,0.588012695,-0.178466797,-0.763183594,0.200012207,0.62890625,0.73828125,-0.1875,-8.140625,4.953125,2.40625,0.05078125,-0.259765625,0.130859375
405,4014232,4314232,0.587280273,-0.179016113,-0.763427734,0.200683594,0.62890625,0.73828125,-0.1875,-8.140625,4.953125,2.40625,-0.0625,-0.095703125,0.19921875
406,4017972,4317972,0.586791992,-0.179321289,-0.76348877,0.201599121,0.60546875,0.70703125,-0.41015625,-8.1171875,4.984375,2.4375,-0.0625,-0.095703125,0.19921875
407,4034402,4334402,0.586425781,-0.179321289,-0.763366699,0.202880859,0.60546875,0.70703125,-0.41015625,-8.1171875,4.984375,2.4375,-0.17578125,0.046875,0.197265625
408,4042634,4342634,0.586486816,-0.178955078,-0.763122559,0.204223633,0.765625,0.67578125,-0.30859375,-8.0859375,5.015625,2.453125,-0.17578125,0.046875,0.197265625
409,4054259,4354259,0.586914062,-0.178100586,-0.762573242,0.205749512,0.765625,0.67578125,-0.30859375,-8.0859375,5.015625,2.453125,-0.291015625,0.275390625,0.109375
410,4058003,4358003,0.58770752,-0.176940918,-0.76184082,0.207214355,0.375,0.46875,-0.42578125,-8.078125,5.03125,2.453125,-0.291015625,0.275390625,0.109375
411,4072461,4372461,0.588745117,-0.175537109,-0.760925293,0.20880127,0.375,0.46875,-0.42578125,-8.078125,5.03125,2.453125,-0.3046875,0.396484375,0.08203125
412,4078422,4378422,0.589904785,-0.174255371,-0.75982666,0.210388184,0.5,0.1640625,-0.82421875,-8.0859375,5.03125,2.4296875,-0.3046875,0.396484375,0.08203125
413,4092196,4392196,0.591186523,-0.172973633,-0.758666992,0.212097168,0.5,0.1640625,-0.82421875,-8.0859375,5.03125,2.4296875,-0.3046875,0.46484375,0.126953125
414,4099913,4399913,0.592590332,-0.171630859,-0.757385254,0.213989258,0.73828125,0.23046875,-0.46875,-8.09375,5.0390625,2.3828125,-0.3046875,0.46484375,0.126953125
415,4113453,4413453,0.594238281,-0.17010498,-0.75579834,0.216125488,0.73828125,0.23046875,-0.46875,-8.09375,5.0390625,2.3828125,-0.37890625,0.607421875,0.162109375
416,4123289,4423289,0.596069336,-0.168457031,-0.754089355,0.218383789,0.8203125,0.4140625,-0.22265625,-8.1015625,5.046875,2.328125,-0.37890625,0.607421875,0.162109375
417,4135840,4435840,0.598266602,-0.166564941,-0.751953125,0.221069336,0.8203125,0.4140625,-0.22265625,-8.1015625,5.046875,2.328125,-0.458984375,0.81640625,0.20703125
418,4139855,4439855,0.600769043,-0.164428711,-0.749511719,0.224121094,0.5234375,0.40625,-0.26953125,-8.109375,5.0546875,2.2578125,-0.458984375,0.81640625,0.20703125
419,4153242,4453242,0.603820801,-0.161865234,-0.746520996,0.227905273,0.5234375,0.40625,-0.26953125,-8.109375,5.0546875,2.2578125,-0.619140625,1.05078125,0.31640625
420,4158521,4458521,0.606872559,-0.159301758,-0.743286133,0.232055664,0.4609375,0.578125,-0.39453125,-8.125,5.078125,2.15625,-0.619140625,1.05078125,0.31640625
421,4172976,4472976,0.609802246,-0.156921387,-0.74005127,0.236328125,0.4609375,0.578125,-0.39453125,-8.125,5.078125,2.15625,-0.625,1.09375,0.447265625
422,4179473,4479473,0.612609863,-0.154846191,-0.736694336,0.240844727,0.1640625,0.5078125,-0.546875,-8.1328125,5.109375,2.0390625,-0.625,1.09375,0.447265625
423,4191470,4491470,0.614990234,-0.153137207,-0.733642578,0.245178223,0.1640625,0.5078125,-0.546875,-8.1328125,5.109375,2.0390625,-0.57421875,0.904296875,0.517578125
424,4205084,4505084,0.617004395,-0.151733398,-0.730834961,0.249328613,-0.11328125,0.828125,-0.29296875,-8.125,5.171875,1.9375,-0.57421875,0.904296875,0.517578125
425,4217649,4517649,0.619140625,-0.15032959,-0.727661133,0.25402832,-0.11328125,0.828125,-0.29296875,-8.125,5.171875,1.9375,-0.533203125,0.869140625,0.59375
426,4219131,4519131,0.621276855,-0.149230957,-0.724487305,0.258605957,-0.02734375,0.6796875,0.1015625,-8.09375,5.2421875,1.8515625,-0.533203125,0.869140625,0.59375
427,4233258,4533258,0.623413086,-0.148193359,-0.721130371,0.263244629,-0.02734375,0.6796875,0.1015625,-8.09375,5.2421875,1.8515625,-0.54296875,0.96875,0.6953125
428,4238534,4538534,0.625793457,-0.147155762,-0.717407227,0.268432617,0.23828125,0.671875,-0.03515625,-8.0546875,5.328125,1.7578125,-0.54296875,0.96875,0.6953125
429,4251949,4551949,0.628051758,-0.146362305,-0.713684082,0.27355957,0.23828125,0.671875,-0.03515625,-8.0546875,5.328125,1.7578125,-0.5390625,1.03515625,0.830078125
430,4258578,4558578,0.630432129,-0.145690918,-0.709472656,0.27923584,0.23046875,0.40234375,-0.28125,-8.0078125,5.4453125,1.65625,-0.5390625,1.03515625,0.830078125
431,4272658,4572658,0.6328125,-0.145324707,-0.70526123,0.284790039,0.23046875,0.40234375,-0.28125,-8.0078125,5.4453125,1.65625,-0.5,1.078125,0.953125
432,4281003,4581003,0.635131836,-0.145080566,-0.700805664,0.290588379,0.3125,0.46875,-0.5546875,-7.9375,5.5703125,1.546875,-0.5,1.078125,0.953125
433,4292421,4592421,0.637268066,-0.144958496,-0.696350098,0.296630859,0.3125,0.46875,-0.5546875,-7.9375,5.5703125,1.546875,-0.54296875,1.03515625,1.02734375
434,4300229,4600229,0.639221191,-0.144836426,-0.691955566,0.30267334,0.12109375,0.47265625,-0.4375,-7.859375,5.71875,1.4296875,-0.54296875,1.03515625,1.02734375
435,4313432,4613432,0.640930176,-0.144958496,-0.687744141,0.30859375,0.12109375,0.47265625,-0.4375,-7.859375,5.71875,1.4296875,-0.501953125,0.892578125,1.03125
436,4317788,4617788,0.64239502,-0.145263672,-0.683776855,0.314086914,-0.51953125,0.5625,-0.609375,-7.7578125,5.859375,1.3359375,-0.501953125,0.892578125,1.03125
437,4333344,4633344,0.644042969,-0.145690918,-0.679504395,0.319824219,-0.51953125,0.5625,-0.609375,-7.7578125,5.859375,1.3359375,-0.423828125,0.892578125,1.00976562
438,4338133,4638133,0.645629883,-0.145935059,-0.675415039,0.325012207,-0.50390625,0.3671875,-0.2578125,-7.65625,6.015625,1.25,-0.423828125,0.892578125,1.00976562
439,4352092,4652092,0.647583008,-0.146118164,-0.670837402,0.330505371,-0.50390625,0.3671875,-0.2578125,-7.65625,6.015625,1.25,-0.408203125,1.0078125,0.9765625
440,4365166,4665166,0.649780273,-0.14642334,-0.66607666,0.335754395,0.05078125,-0.1484375,-0.3984375,-7.5625,6.1484375,1.1640625,-0.408203125,1.0078125,0.9765625
441,4377336,4677336,0.651977539,-0.147277832,-0.661376953,0.340270996,0.05078125,-0.1484375,-0.3984375,-7.5625,6.1484375,1.1640625,-0.119140625,0.990234375,0.97265625
442,4378820,4678820,0.65435791,-0.148681641,-0.656555176,0.344482422,0.41015625,-0.56640625,-0.7734375,-7.4609375,6.296875,1.0390625,-0.119140625,0.990234375,0.97265625
443,4394149,4694149,0.656738281,-0.150756836,-0.651733398,0.348083496,0.41015625,-0.56640625,-0.7734375,-7.4609375,6.296875,1.0390625,0.177734375,0.88671875,1.00195312
444,4397837,4697837,0.659179688,-0.153198242,-0.647094727,0.351135254,0.0703125,-0.71484375,-0.40234375,-7.3515625,6.4453125,0.8984375,0.177734375,0.88671875,1.00195312
445,4413530,4713530,0.661804199,-0.156005859,-0.642150879,0.354003906,0.0703125,-0.71484375,-0.40234375,-7.3515625,6.4453125,0.8984375,0.314453125,0.841796875,0.96875
446,4417249,4717249,0.6640625,-0.158508301,-0.637695312,0.356628418,-0.8046875,-0.01953125,-0.31640625,-7.2421875,6.59375,0.734375,0.314453125,0.841796875,0.96875
447,4433790,4733790,0.666320801,-0.160766602,-0.633239746,0.359436035,-0.8046875,-0.01953125,-0.31640625,-7.2421875,6.59375,0.734375,0.166015625,0.763671875,0.841796875
448,4443171,4743171,0.668151855,-0.162353516,-0.629272461,0.362182617,-0.46875,0.109375,-0.08984375,-7.1171875,6.734375,0.5859375,0.166015625,0.763671875,0.841796875
449,4455654,4755654,0.669921875,-0.163452148,-0.625305176,0.365356445,-0.46875,0.109375,-0.08984375,-7.1171875,6.734375,0.5859375,-0.08984375,0.779296875,0.73828125
450,4459782,4759782,0.671508789,-0.164001465,-0.621459961,0.368713379,0.28125,0.19140625,0.1328125,-7.0234375,6.84375,0.4765625,-0.08984375,0.779296875,0.73828125
451,4473679,4773679,0.673034668,-0.164245605,-0.617492676,0.372558594,0.28125,0.19140625,0.1328125,-7.0234375,6.84375,0.4765625,-0.296875,0.787109375,0.7109375
452,4479993,4779993,0.674194336,-0.1640625,-0.613891602,0.376464844,0.1875,0.01953125,0.3828125,-6.9296875,6.9375,0.3828125,-0.296875,0.787109375,0.7109375
453,4493849,4793849,0.675170898,-0.163696289,-0.610351562,0.380554199,0.1875,0.01953125,0.3828125,-6.9296875,6.9375,0.3828125,-0.408203125,0.767578125,0.677734375
454,4497587,4797587,0.676208496,-0.163391113,-0.606811523,0.384460449,-0.67578125,-0.58203125,0.97265625,-6.8359375,7.0390625,0.328125,-0.408203125,0.767578125,0.677734375
455,4512200,4812200,0.677124023,-0.163330078,-0.60345459,0.388122559,-0.67578125,-0.58203125,0.97265625,-6.8359375,7.0390625,0.328125,-0.296875,0.62109375,0.63671875
456,4528224,4828224,0.67779541,-0.163635254,-0.600402832,0.391601562,-1.45703125,-0.78125,1.44140625,-6.7421875,7.125,0.28125,-0.296875,0.62109375,0.63671875
457,4533397,4833397,0.678344727,-0.164489746,-0.597229004,0.395080566,-1.45703125,-0.78125,1.44140625,-6.7421875,7.125,0.28125,-0.185546875,0.521484375,0.779296875
458,4539805,4839805,0.679077148,-0.165588379,-0.593994141,0.39831543,-0.171875,0.46484375,-0.24609375,-6.6484375,7.21875,0.2421875,-0.185546875,0.521484375,0.779296875
459,4551434,4851434,0.680419922,-0.166625977,-0.589660645,0.401977539,-0.171875,0.46484375,-0.24609375,-6.6484375,7.21875,0.2421875,-0.12890625,0.8984375,0.86328125
460,4560320,4860320,0.682312012,-0.166931152,-0.584533691,0.406066895,0.66015625,1.3125,-1.3984375,-6.5234375,7.328125,0.171875,-0.12890625,0.8984375,0.86328125
461,4572976,4872976,0.684326172,-0.166259766,-0.579284668,0.410461426,0.66015625,1.3125,-1.3984375,-6.5234375,7.328125,0.171875,-0.40625,1.1796875,0.728515625
462,4578027,4878027,0.686218262,-0.165100098,-0.574279785,0.414794922,0.16015625,0.8203125,-1.71875,-6.40625,7.4375,0.0703125,-0.40625,1.1796875,0.728515625
463,4592196,4892196,0.688049316,-0.164367676,-0.569641113,0.418457031,0.16015625,0.8203125,-1.71875,-6.40625,7.4375,0.0703125,-0.150390625,0.93359375,0.625
464,4608222,4908222,0.689880371,-0.164978027,-0.565612793,0.420654297,-0.77734375,-0.875,-0.75390625,-6.3125,7.5234375,-0.015625,-0.150390625,0.93359375,0.625
465,4613460,4913460,0.691711426,-0.167053223,-0.562438965,0.421081543,-0.77734375,-0.875,-0.75390625,-6.3125,7.5234375,-0.015625,0.611328125,0.337890625,0.4921875
466,4619677,4919677,0.69354248,-0.16986084,-0.559936523,0.420227051,-2.2890625,-2.4375,1.04296875,-6.21875,7.59375,-0.125,0.611328125,0.337890625,0.4921875
467,4633636,4933636,0.695800781,-0.172973633,-0.557434082,0.418640137,-2.2890625,-2.4375,1.04296875,-6.21875,7.59375,-0.125,0.8046875,0.30859375,0.330078125
468,4640347,4940347,0.697937012,-0.175354004,-0.554992676,0.417236328,-1.66015625,-1.94921875,1.390625,-6.15625,7.640625,-0.28125,0.8046875,0.30859375,0.330078125
469,4651980,4951980,0.700134277,-0.177307129,-0.552307129,0.416320801,-1.66015625,-1.94921875,1.390625,-6.15625,7.640625,-0.28125,0.515625,0.44921875,0.30859375
470,4659726,4959726,0.702087402,-0.178588867,-0.549560547,0.416137695,-0.2890625,-0.30078125,0.390625,-6.109375,7.6796875,-0.4296875,0.515625,0.44921875,0.30859375
471,4673963,4973963,0.703735352,-0.179260254,-0.546813965,0.416625977,-0.2890625,-0.30078125,0.390625,-6.109375,7.6796875,-0.4296875,0.171875,0.5234375,0.30859375
472,4682622,4982622,0.70501709,-0.179626465,-0.544494629,0.417419434,-0.3046875,0.203125,0.5078125,-6.0546875,7.7109375,-0.546875,0.171875,0.5234375,0.30859375
473,4694224,4994224,0.705993652,-0.179626465,-0.542419434,0.418457031,-0.3046875,0.203125,0.5078125,-6.0546875,7.7109375,-0.546875,-0.021484375,0.365234375,0.205078125
474,4697995,4997995,0.706604004,-0.179443359,-0.54095459,0.419372559,-1.08203125,0.2890625,1.03515625,-6.0078125,7.7421875,-0.6171875,-0.021484375,0.365234375,0.205078125
475,4715585,5015585,0.70715332,-0.178955078,-0.539611816,0.420288086,-1.08203125,0.2890625,1.03515625,-6.0078125,7.7421875,-0.6171875,-0.083984375,0.306640625,0.0859375
476,4719809,5019809,0.707885742,-0.178344727,-0.538391113,0.420959473,-0.56640625,0.04296875,1.359375,-5.984375,7.7578125,-0.6328125,-0.083984375,0.306640625,0.0859375
477,4734567,5034567,0.70892334,-0.177612305,-0.53692627,0.421386719,-0.56640625,0.04296875,1.359375,-5.984375,7.7578125,-0.6328125,0.03515625,0.416015625,0
478,4738321,5038321,0.710205078,-0.176940918,-0.535400391,0.421508789,-0.1640625,-0.234375,0.171875,-5.96875,7.765625,-0.671875,0.03515625,0.416015625,0
479,4753195,5053195,0.711669922,-0.176513672,-0.533752441,0.421264648,-0.1640625,-0.234375,0.171875,-5.96875,7.765625,-0.671875,0.20703125,0.380859375,-0.00390625
480,4761643,5061643,0.71295166,-0.176330566,-0.532470703,0.420837402,-0.57421875,-0.41796875,-0.484375,-5.9765625,7.7578125,-0.7421875,0.20703125,0.380859375,-0.00390625
481,4774561,5074561,0.713867188,-0.176086426,-0.531555176,0.420471191,-0.57421875,-0.41796875,-0.484375,-5.9765625,7.7578125,-0.7421875,0.08203125,0.17578125,-0.056640625
482,4778292,5078292,0.714355469,-0.175720215,-0.53125,0.420166016,-0.73046875,-1.453125,-0.39453125,-5.9765625,7.7578125,-0.796875,0.08203125,0.17578125,-0.056640625
483,4793965,5093965,0.714477539,-0.175476074,-0.531494141,0.419799805,-0.73046875,-1.453125,-0.39453125,-5.9765625,7.7578125,-0.796875,0.021484375,-0.083984375,-0.099609375
484,4797560,5097560,0.714233398,-0.175537109,-0.532226562,0.419311523,-1.01953125,-1.66796875,0.3125,-5.9921875,7.7421875,-0.8125,0.021484375,-0.083984375,-0.099609375
485,4813023,5113023,0.713684082,-0.175720215,-0.53338623,0.418640137,-1.01953125,-1.66796875,0.3125,-5.9921875,7.7421875,-0.8125,0.0390625,-0.298828125,-0.134765625
486,4819012,5119012,0.713012695,-0.175964355,-0.534851074,0.417785645,-0.99609375,-1,1.015625,-6.015625,7.7265625,-0.7890625,0.0390625,-0.298828125,-0.134765625
487,4833281,5133281,0.712280273,-0.175964355,-0.536621094,0.416748047,-0.99609375,-1,1.015625,-6.015625,7.7265625,-0.7890625,0.041015625,-0.388671875,-0.263671875
488,4842306,5142306,0.711547852,-0.175964355,-0.538696289,0.415405273,-0.87890625,-1.12890625,1.015625,-6.0546875,7.703125,-0.75,0.041015625,-0.388671875,-0.263671875
489,4854586,5154586,0.71081543,-0.175842285,-0.541015625,0.413757324,-0.87890625,-1.12890625,1.015625,-6.0546875,7.703125,-0.75,0.1015625,-0.49609375,-0.40625
490,4858326,5158326,0.710021973,-0.175720215,-0.543579102,0.411743164,-1.015625,-1.08203125,0.671875,-6.109375,7.65625,-0.7109375,0.1015625,-0.49609375,-0.40625
491,4873193,5173193,0.70904541,-0.175476074,-0.54675293,0.409301758,-1.015625,-1.08203125,0.671875,-6.109375,7.65625,-0.7109375,0.13671875,-0.63671875,-0.5390625
492,4879493,5179493,0.707946777,-0.175170898,-0.550292969,0.406555176,-1.125,-0.98046875,0.6171875,-6.1953125,7.59375,-0.65625,0.13671875,-0.63671875,-0.5390625
493,4893171,5193171,0.706848145,-0.174804688,-0.554016113,0.403564453,-1.125,-0.98046875,0.6171875,-6.1953125,7.59375,-0.65625,0.171875,-0.77734375,-0.716796875
494,4898903,5198903,0.705566406,-0.174255371,-0.558349609,0.400085449,-0.984375,-0.828125,0.546875,-6.296875,7.515625,-0.5859375,0.171875,-0.77734375,-0.716796875
495,4913266,5213266,0.704162598,-0.173583984,-0.563049316,0.396240234,-0.984375,-0.828125,0.546875,-6.296875,7.515625,-0.5859375,0.205078125,-0.9609375,-0.908203125
496,4921528,5221528,0.702514648,-0.172729492,-0.56842041,0.391784668,-1.07421875,-0.71875,0.50390625,-6.4375,7.40625,-0.5078125,0.205078125,-0.9609375,-0.908203125
497,4933254,5233254,0.700744629,-0.17175293,-0.574035645,0.387268066,-1.07421875,-0.71875,0.50390625,-6.4375,7.40625,-0.5078125,0.177734375,-1.11132812,-1.09765625
498,4938990,5238990,0.698730469,-0.170349121,-0.580078125,0.382446289,-1.0234375,-0.6171875,1.0078125,-6.6015625,7.265625,-0.3984375,0.177734375,-1.11132812,-1.09765625
499,4951722,5251722,0.696594238,-0.168579102,-0.586303711,0.377624512,-1.0234375,-0.6171875,1.0078125,-6.6015625,7.265625,-0.3984375,0.052734375,-1.17382812,-1.25195312
500,4959970,5259970,0.694213867,-0.166564941,-0.592590332,0.37310791,-0.8125,-0.4609375,1.40625,-6.7734375,7.109375,-0.2578125,0.052734375,-1.17382812,-1.25195312
501,4972802,5272802,0.691162109,-0.164306641,-0.59967041,0.368347168,-0.8125,-0.4609375,1.40625,-6.7734375,7.109375,-0.2578125,-0.068359375,-1.36328125,-1.2734375
502,4978542,5278542,0.687866211,-0.16229248,-0.606933594,0.363525391,-0.625,-0.28125,0.8125,-6.9609375,6.9296875,-0.0859375,-0.068359375,-1.36328125,-1.2734375
503,4992911,5292911,0.684753418,-0.160217285,-0.613647461,0.359008789,-0.625,-0.28125,0.8125,-6.9609375,6.9296875,-0.0859375,-0.083984375,-1.24609375,-1.22460938
504,5001342,5301342,0.681945801,-0.157592773,-0.619995117,0.354614258,-0.30078125,0.59765625,0.1875,-7.1328125,6.7421875,0.1171875,-0.083984375,-1.24609375,-1.22460938
505,5013112,5313112,0.679443359,-0.15423584,-0.626037598,0.350219727,-0.30078125,0.59765625,0.1875,-7.1328125,6.7421875,0.1171875,-0.185546875,-0.9921875,-1.38867188
506,5018848,5318848,0.677062988,-0.150756836,-0.632080078,0.345397949,-0.92578125,0.70703125,-0.23046875,-7.3125,6.5546875,0.3046875,-0.185546875,-0.9921875,-1.38867188
507,5032753,5332753,0.674621582,-0.147583008,-0.638366699,0.340087891,-0.92578125,0.70703125,-0.23046875,-7.3125,6.5546875,0.3046875,0.02734375,-1.15039062,-1.48242188
508,5038196,5338196,0.671936035,-0.144775391,-0.644836426,0.334289551,-1.3984375,0.69921875,-0.28125,-7.4921875,6.3359375,0.46875,0.02734375,-1.15039062,-1.48242188
509,5052491,5352491,0.668945312,-0.142150879,-0.651428223,0.328491211,-1.3984375,0.69921875,-0.28125,-7.4921875,6.3359375,0.46875,0.015625,-1.33007812,-1.43359375
510,5058234,5358234,0.665466309,-0.139770508,-0.658325195,0.322937012,-1.109375,0.65625,-0.23828125,-7.6640625,6.109375,0.65625,0.015625,-1.33007812,-1.43359375
511,5072158,5372158,0.661804199,-0.137939453,-0.664978027,0.317565918,-1.109375,0.65625,-0.23828125,-7.6640625,6.109375,0.65625,0.068359375,-1.44140625,-1.2578125
512,5080877,5380877,0.657958984,-0.136474609,-0.671508789,0.312316895,-0.203125,0.54296875,-0.2265625,-7.8046875,5.9140625,0.875,0.068359375,-1.44140625,-1.2578125
513,5092964,5392964,0.653869629,-0.135498047,-0.678100586,0.307006836,-0.203125,0.54296875,-0.2265625,-7.8046875,5.9140625,0.875,0.173828125,-1.4609375,-1.08203125
514,5098695,5398695,0.649841309,-0.135070801,-0.684387207,0.301696777,0.17578125,0.46484375,-0.484375,-7.9140625,5.7265625,1.09375,0.173828125,-1.4609375,-1.08203125
515,5111858,5411858,0.646179199,-0.135375977,-0.690002441,0.296630859,0.17578125,0.46484375,-0.484375,-7.9140625,5.7265625,1.09375,0.41015625,-1.42578125,-0.890625
516,5118346,5418346,0.64239502,-0.136352539,-0.695739746,0.291015625,0.28125,-0.03125,-0.75390625,-7.984375,5.5703125,1.2890625,0.41015625,-1.42578125,-0.890625
517,5132627,5432627,0.638793945,-0.137817383,-0.70098877,0.285705566,0.28125,-0.03125,-0.75390625,-7.984375,5.5703125,1.2890625,0.548828125,-1.37695312,-0.69921875
518,5138368,5438368,0.635253906,-0.139526367,-0.705810547,0.280700684,0.34375,0.1640625,-0.78125,-8.046875,5.453125,1.46875,0.548828125,-1.37695312,-0.69921875
519,5151622,5451622,0.632019043,-0.141296387,-0.710205078,0.276184082,0.34375,0.1640625,-0.78125,-8.046875,5.453125,1.46875,0.548828125,-1.27929688,-0.56640625
520,5160731,5460731,0.628479004,-0.143371582,-0.71472168,0.271362305,0.98046875,0.47265625,-1.16015625,-8.0703125,5.375,1.6171875,0.548828125,-1.27929688,-0.56640625
521,5172971,5472971,0.625244141,-0.145385742,-0.718811035,0.266906738,0.98046875,0.47265625,-1.16015625,-8.0703125,5.375,1.6171875,0.56640625,-1.1953125,-0.50390625
522,5178706,5478706,0.622131348,-0.147521973,-0.72277832,0.262390137,0.57421875,0.50390625,-1.15625,-8.0859375,5.3046875,1.765625,0.56640625,-1.1953125,-0.50390625
523,5191872,5491872,0.61895752,-0.149780273,-0.726623535,0.257751465,0.57421875,0.50390625,-1.15625,-8.0859375,5.3046875,1.765625,0.619140625,-1.15625,-0.484375
524,5198355,5498355,0.616027832,-0.152038574,-0.730224609,0.253234863,-0.01953125,0.296875,-0.62890625,-8.1015625,5.2421875,1.890625,0.619140625,-1.15625,-0.484375
525,5211112,5511112,0.612915039,-0.154541016,-0.734008789,0.248352051,-0.01953125,0.296875,-0.62890625,-8.1015625,5.2421875,1.890625,0.712890625,-1.1875,-0.515625
526,5219478,5519478,0.609985352,-0.156982422,-0.737609863,0.243347168,-0.2421875,0.16015625,-0.484375,-8.109375,5.1875,2.015625,0.712890625,-1.1875,-0.515625
527,5230548,5530548,0.60736084,-0.159545898,-0.740905762,0.23815918,-0.2421875,0.16015625,-0.484375,-8.109375,5.1875,2.015625,0.82421875,-1.04101562,-0.515625
528,5242583,5542583,0.604980469,-0.162109375,-0.743896484,0.233154297,0.5,0.13671875,-0.1640625,-8.125,5.1328125,2.1171875,0.82421875,-1.04101562,-0.515625
529,5252945,5552945,0.602600098,-0.164489746,-0.746826172,0.228210449,0.5,0.13671875,-0.1640625,-8.125,5.1328125,2.1171875,0.6875,-0.916015625,-0.48046875
530,5258682,5558682,0.600341797,-0.166381836,-0.749511719,0.223754883,0.62109375,0.109375,-0.05078125,-8.1328125,5.0859375,2.1953125,0.6875,-0.916015625,-0.48046875
531,5272192,5572192,0.598083496,-0.16796875,-0.752197266,0.219665527,0.62109375,0.109375,-0.05078125,-8.1328125,5.0859375,2.1953125,0.517578125,-0.88671875,-0.447265625
532,5277800,5577800,0.59564209,-0.16973877,-0.754943848,0.215576172,-0.05859375,0.0859375,-0.97265625,-8.140625,5.03125,2.2734375,0.517578125,-0.88671875,-0.447265625
533,5292190,5592190,0.592895508,-0.172119141,-0.7578125,0.21105957,-0.05859375,0.0859375,-0.97265625,-8.140625,5.03125,2.2734375,0.75,-1.02734375,-0.400390625
534,5299779,5599779,0.590026855,-0.174987793,-0.760681152,0.206420898,-0.01953125,0.36328125,-0.61328125,-8.140625,4.984375,2.375,0.75,-1.02734375,-0.400390625
535,5312019,5612019,0.587036133,-0.177734375,-0.763549805,0.201904297,-0.01953125,0.36328125,-0.61328125,-8.140625,4.984375,2.375,0.67578125,-1.0390625,-0.369140625
536,5320997,5620997,0.58416748,-0.179870605,-0.766296387,0.197875977,0.5390625,1.0390625,0.05859375,-8.125,4.9609375,2.46875,0.67578125,-1.0390625,-0.369140625
537,5335793,5635793,0.581604004,-0.181335449,-0.768737793,0.194519043,0.5390625,1.0390625,0.05859375,-8.125,4.9609375,2.46875,0.37109375,-0.81640625,-0.3359375
538,5339800,5639800,0.579223633,-0.182495117,-0.770996094,0.191650391,0.828125,0.91796875,-0.734375,-8.109375,4.9296875,2.5703125,0.37109375,-0.81640625,-0.3359375
539,5351793,5651793,0.576843262,-0.18359375,-0.773193359,0.188842773,0.828125,0.91796875,-0.734375,-8.109375,4.9296875,2.5703125,0.306640625,-0.697265625,-0.267578125
540,5358285,5658285,0.574707031,-0.184692383,-0.775146484,0.186340332,0.4765625,0.44921875,-0.7109375,-8.1015625,4.8984375,2.6640625,0.306640625,-0.697265625,-0.267578125
541,5372564,5672564,0.572631836,-0.185974121,-0.776916504,0.184020996,0.4765625,0.44921875,-0.7109375,-8.1015625,4.8984375,2.6640625,0.328125,-0.642578125,-0.18359375
542,5380268,5680268,0.570678711,-0.18737793,-0.778564453,0.18182373,0.26953125,0.38671875,-0.58984375,-8.0859375,4.8828125,2.734375,0.328125,-0.642578125,-0.18359375
543,5392008,5692008,0.568725586,-0.189025879,-0.780090332,0.179626465,0.26953125,0.38671875,-0.58984375,-8.0859375,4.8828125,2.734375,0.3984375,-0.59375,-0.115234375
544,5401109,5701109,0.566955566,-0.190856934,-0.781433105,0.177612305,0.70703125,0.92578125,-0.69921875,-8.0625,4.8828125,2.8046875,0.3984375,-0.59375,-0.115234375
545,5415036,5715036,0.565307617,-0.192749023,-0.782531738,0.176025391,0.70703125,0.92578125,-0.69921875,-8.0625,4.8828125,2.8046875,0.35546875,-0.4765625,0.0234375
546,5419273,5719273,0.563903809,-0.194396973,-0.78338623,0.174926758,0.52734375,1.0234375,-0.40234375,-8.0390625,4.8984375,2.8515625,0.35546875,-0.4765625,0.0234375
547,5431441,5731441,0.562683105,-0.195800781,-0.783996582,0.174194336,0.52734375,1.0234375,-0.40234375,-8.0390625,4.8984375,2.8515625,0.19921875,-0.267578125,0.08203125
548,5438292,5738292,0.561950684,-0.196777344,-0.784362793,0.17388916,0.58203125,1.19140625,-0.47265625,-8.015625,4.921875,2.8828125,0.19921875,-0.267578125,0.08203125
549,5451949,5751949,0.561523438,-0.19732666,-0.784545898,0.174072266,0.58203125,1.19140625,-0.47265625,-8.015625,4.921875,2.8828125,0.00390625,-0.05078125,0.12109375
550,5460042,5760042,0.561279297,-0.197570801,-0.784484863,0.174621582,0.59765625,0.9453125,-0.71875,-7.9921875,4.9375,2.8984375,0.00390625,-0.05078125,0.12109375
551,5473911,5773911,0.561157227,-0.197814941,-0.784362793,0.175415039,0.59765625,0.9453125,-0.71875,-7.9921875,4.9375,2.8984375,-0.0546875,0.0390625,0.16015625
552,5482627,5782627,0.561157227,-0.198059082,-0.784118652,0.176208496,0.58984375,0.41796875,-0.75390625,-7.984375,4.96875,2.8984375,-0.0546875,0.0390625,0.16015625
553,5493010,5793010,0.561340332,-0.198303223,-0.783691406,0.177124023,0.58984375,0.41796875,-0.75390625,-7.984375,4.96875,2.8984375,-0.046875,0.12109375,0.19140625
554,5500718,5800718,0.561706543,-0.198425293,-0.78314209,0.178283691,0.61328125,0.546875,-0.48046875,-7.96875,4.9921875,2.890625,-0.046875,0.12109375,0.19140625
555,5512004,5812004,0.562255859,-0.198364258,-0.782470703,0.179626465,0.61328125,0.546875,-0.48046875,-7.96875,4.9921875,2.890625,-0.1484375,0.251953125,0.20703125
556,5517880,5817880,0.562927246,-0.197937012,-0.781738281,0.181213379,0.671875,0.71484375,-0.45703125,-7.953125,5.015625,2.8671875,-0.1484375,0.251953125,0.20703125
557,5533460,5833460,0.563781738,-0.19732666,-0.780822754,0.182983398,0.671875,0.71484375,-0.45703125,-7.953125,5.015625,2.8671875,-0.248046875,0.365234375,0.21875
558,5539174,5839174,0.564880371,-0.196594238,-0.779785156,0.184936523,0.6328125,0.5703125,-0.45703125,-7.953125,5.046875,2.828125,-0.248046875,0.365234375,0.21875
559,5551867,5851867,0.566162109,-0.195495605,-0.778564453,0.187255859,0.6328125,0.5703125,-0.45703125,-7.953125,5.046875,2.828125,-0.353515625,0.482421875,0.2265625
560,5558936,5858936,0.567565918,-0.194152832,-0.777282715,0.189697266,0.3671875,0.4765625,-0.65234375,-7.953125,5.0625,2.796875,-0.353515625,0.482421875,0.2265625
561,5573792,5873792,0.569152832,-0.192626953,-0.775878906,0.192260742,0.3671875,0.4765625,-0.65234375,-7.953125,5.0625,2.796875,-0.412109375,0.59765625,0.208984375
562,5577516,5877516,0.570922852,-0.191040039,-0.774353027,0.194763184,0.25,0.33984375,-0.53125,-7.953125,5.0859375,2.75,-0.412109375,0.59765625,0.208984375
563,5593677,5893677,0.573242188,-0.189025879,-0.772399902,0.197631836,0.25,0.33984375,-0.53125,-7.953125,5.0859375,2.75,-0.48046875,0.791015625,0.197265625
564,5597269,5897269,0.575622559,-0.186889648,-0.770446777,0.200500488,-0.03125,0.33203125,-0.26953125,-7.9765625,5.09375,2.6796875,-0.48046875,0.791015625,0.197265625
565,5613778,5913778,0.578430176,-0.184204102,-0.768066406,0.203918457,-0.03125,0.33203125,-0.26953125,-7.9765625,5.09375,2.6796875,-0.62109375,0.9375,0.20703125
566,5617504,5917504,0.581115723,-0.181518555,-0.76574707,0.207397461,0.0625,0.24609375,-0.18359375,-7.9921875,5.1015625,2.59375,-0.62109375,0.9375,0.20703125
567,5633650,5933650,0.58404541,-0.178771973,-0.763000488,0.211425781,0.0625,0.24609375,-0.18359375,-7.9921875,5.1015625,2.59375,-0.6484375,0.99609375,0.3359375
568,5642639,5942639,0.586730957,-0.176513672,-0.760314941,0.215515137,0.7734375,0.30859375,-0.28125,-8.015625,5.1171875,2.5,-0.6484375,0.99609375,0.3359375
569,5654191,5954191,0.58972168,-0.174438477,-0.757141113,0.220275879,0.7734375,0.30859375,-0.28125,-8.015625,5.1171875,2.5,-0.599609375,1.06835938,0.546875
570,5657932,5957932,0.592590332,-0.172790527,-0.75390625,0.224975586,1.34765625,0.53515625,-0.03515625,-8.015625,5.15625,2.40625,-0.599609375,1.06835938,0.546875
571,5672780,5972780,0.596008301,-0.171142578,-0.749938965,0.230407715,1.34765625,0.53515625,-0.03515625,-8.015625,5.15625,2.40625,-0.57421875,1.22070312,0.677734375
572,5678406,5978406,0.599365234,-0.169555664,-0.745910645,0.235900879,0.91796875,0.58203125,-0.28515625,-8.0078125,5.2265625,2.2734375,-0.57421875,1.22070312,0.677734375
573,5693086,5993086,0.602600098,-0.167907715,-0.741821289,0.241638184,0.91796875,0.58203125,-0.28515625,-8.0078125,5.2265625,2.2734375,-0.703125,1.28710938,0.77734375
574,5697866,5997866,0.605895996,-0.165893555,-0.737426758,0.248168945,-0.0703125,0.984375,-1.03125,-7.9765625,5.3203125,2.140625,-0.703125,1.28710938,0.77734375
575,5712722,6012722,0.609069824,-0.163818359,-0.732971191,0.254882812,-0.0703125,0.984375,-1.03125,-7.9765625,5.3203125,2.140625,-0.83984375,1.33984375,0.884765625
576,5721874,6021874,0.611999512,-0.16204834,-0.72857666,0.261535645,-0.140625,1,-1.3203125,-7.9453125,5.421875,2.0078125,-0.83984375,1.33984375,0.884765625
577,5733814,6033814,0.614990234,-0.160827637,-0.723754883,0.268432617,-0.140625,1,-1.3203125,-7.9453125,5.421875,2.0078125,-0.6328125,1.27148438,1.0390625
578,5737419,6037419,0.617858887,-0.160461426,-0.718994141,0.274902344,0.2265625,0.26171875,-1.08203125,-7.890625,5.546875,1.8828125,-0.6328125,1.27148438,1.0390625
579,5752220,6052220,0.620910645,-0.161010742,-0.713745117,0.28125,0.2265625,0.26171875,-1.08203125,-7.890625,5.546875,1.8828125,-0.2734375,1.18164062,1.14257812
580,5758496,6058496,0.623901367,-0.162109375,-0.708557129,0.287109375,0.29296875,0.09765625,-0.47265625,-7.8046875,5.7109375,1.734375,-0.2734375,1.18164062,1.14257812
581,5771619,6071619,0.62677002,-0.163146973,-0.703552246,0.292541504,0.29296875,0.09765625,-0.47265625,-7.8046875,5.7109375,1.734375,-0.2265625,1.2265625,1.12109375
582,5778529,6078529,0.630004883,-0.163879395,-0.697998047,0.298400879,-0.02734375,0.5078125,-0.125,-7.7109375,5.875,1.578125,-0.2265625,1.2265625,1.12109375
583,5792003,6092003,0.633178711,-0.164001465,-0.692565918,0.304199219,-0.02734375,0.5078125,-0.125,-7.7109375,5.875,1.578125,-0.416015625,1.32421875,1
584,5806795,6106795,0.636230469,-0.163452148,-0.687255859,0.310119629,-0.50390625,0.609375,-0.44921875,-7.6171875,6.0390625,1.40625,-0.416015625,1.32421875,1
585,5816296,6116296,0.639160156,-0.162780762,-0.681884766,0.316223145,-0.50390625,0.609375,-0.44921875,-7.6171875,6.0390625,1.40625,-0.4921875,1.28125,0.9609375
586,5820249,6120249,0.641906738,-0.162353516,-0.676757812,0.321899414,-0.20703125,-0.09765625,-1.11328125,-7.53125,6.171875,1.265625,-0.4921875,1.28125,0.9609375
587,5832241,6132241,0.64453125,-0.162353516,-0.671691895,0.327148438,-0.20703125,-0.09765625,-1.11328125,-7.53125,6.171875,1.265625,-0.287109375,1.15039062,0.966796875
588,5838321,6138321,0.647094727,-0.163024902,-0.666809082,0.331787109,0.15625,-0.6953125,-0.8671875,-7.4375,6.3125,1.1328125,-0.287109375,1.15039062,0.966796875
589,5853065,6153065,0.649902344,-0.164550781,-0.661499023,0.336120605,0.15625,-0.6953125,-0.8671875,-7.4375,6.3125,1.1328125,0.072265625,1.02539062,0.998046875
590,5857853,6157853,0.65246582,-0.166503906,-0.656555176,0.33984375,-0.13671875,-0.61328125,0.0078125,-7.3359375,6.4609375,0.984375,0.072265625,1.02539062,0.998046875
591,5873002,6173002,0.655090332,-0.168640137,-0.651550293,0.343383789,-0.13671875,-0.61328125,0.0078125,-7.3359375,6.4609375,0.984375,0.16015625,0.94921875,0.978515625
592,5887110,6187110,0.657592773,-0.170593262,-0.646606445,0.346923828,-0.7890625,-0.15234375,0.36328125,-7.21875,6.609375,0.8203125,0.16015625,0.94921875,0.978515625
593,5892296,6192296,0.660095215,-0.172119141,-0.641723633,0.350524902,-0.7890625,-0.15234375,0.36328125,-7.21875,6.609375,0.8203125,0.013671875,1.00195312,0.908203125
594,5899884,6199884,0.662475586,-0.173095703,-0.636779785,0.354492188,-0.5234375,0.4453125,0.17578125,-7.1015625,6.7421875,0.6640625,0.013671875,1.00195312,0.908203125
595,5911787,6211787,0.664733887,-0.173706055,-0.631774902,0.358825684,-0.5234375,0.4453125,0.17578125,-7.1015625,6.7421875,0.6640625,-0.203125,1.04296875,0.888671875
596,5918620,6218620,0.666687012,-0.174133301,-0.627258301,0.362976074,-0.41015625,0.54296875,-0.34375,-6.984375,6.875,0.53125,-0.203125,1.04296875,0.888671875
597,5933235,6233235,0.668640137,-0.174560547,-0.622375488,0.367553711,-0.41015625,0.54296875,-0.34375,-6.984375,6.875,0.53125,-0.23828125,0.962890625,0.869140625
598,5938028,6238028,0.670349121,-0.175048828,-0.617858887,0.371826172,-0.55859375,0.15625,0.02734375,-6.875,6.9921875,0.4296875,-0.23828125,0.962890625,0.869140625
599,5953313,6253313,0.671936035,-0.175720215,-0.613647461,0.375610352,-0.55859375,0.15625,0.02734375,-6.875,6.9921875,0.4296875,-0.126953125,0.796875,0.798828125
600,5962204,6262204,0.673522949,-0.176513672,-0.60949707,0.379150391,-0.97265625,-0.15234375,0.3515625,-6.765625,7.109375,0.3359375,-0.126953125,0.796875,0.798828125
601,5972557,6272557,0.675292969,-0.177062988,-0.60534668,0.382385254,-0.97265625,-0.15234375,0.3515625,-6.765625,7.109375,0.3359375,-0.091796875,0.876953125,0.70703125
602,5978541,6278541,0.677185059,-0.177429199,-0.601013184,0.385681152,-1.16015625,0.015625,0.33984375,-6.65625,7.2109375,0.234375,-0.091796875,0.876953125,0.70703125
603,5993387,6293387,0.679138184,-0.177612305,-0.596557617,0.388977051,-1.16015625,0.015625,0.33984375,-6.65625,7.2109375,0.234375,-0.12890625,0.986328125,0.69140625
604,5998654,6298654,0.681213379,-0.17767334,-0.59197998,0.392333984,-0.44921875,0.2265625,-0.08984375,-6.5625,7.3046875,0.125,-0.12890625,0.986328125,0.69140625
605,6011502,6311502,0.683410645,-0.17755127,-0.586914062,0.396240234,-0.44921875,0.2265625,-0.08984375,-6.5625,7.3046875,0.125,-0.232421875,1.08984375,0.75
606,6018051,6318051,0.685302734,-0.177246094,-0.58203125,0.40020752,-0.09765625,0.4765625,-0.24609375,-6.453125,7.3984375,0.015625,-0.232421875,1.08984375,0.75
607,6032206,6332206,0.687072754,-0.177185059,-0.577209473,0.404174805,-0.09765625,0.4765625,-0.24609375,-6.453125,7.3984375,0.015625,-0.1640625,0.904296875,0.732421875
608,6049136,6349136,0.688659668,-0.177856445,-0.573242188,0.406799316,-0.36328125,-0.2734375,-0.26171875,-6.34375,7.5,-0.0859375,-0.1640625,0.904296875,0.732421875
609,6054651,6354651,0.690429688,-0.179382324,-0.569580078,0.40826416,-0.36328125,-0.2734375,-0.26171875,-6.34375,7.5,-0.0859375,0.369140625,0.505859375,0.51171875
610,6058290,6358290,0.692138672,-0.181091309,-0.566833496,0.408447266,-1.84375,-1.80859375,0.84375,-6.2421875,7.578125,-0.1953125,0.369140625,0.505859375,0.51171875
611,6073585,6373585,0.694152832,-0.182617188,-0.564208984,0.40802002,-1.84375,-1.80859375,0.84375,-6.2421875,7.578125,-0.1953125,0.474609375,0.44140625,0.220703125
612,6077984,6377984,0.696105957,-0.183410645,-0.561828613,0.407592773,-1.70703125,-2.1171875,0.96875,-6.1875,7.6171875,-0.3203125,0.474609375,0.44140625,0.220703125
613,6092792,6392792,0.698181152,-0.183532715,-0.559387207,0.407409668,-1.70703125,-2.1171875,0.96875,-6.1875,7.6171875,-0.3203125,0.212890625,0.5859375,0.1015625
614,6098768,6398768,0.700134277,-0.183227539,-0.556884766,0.407592773,-0.76953125,-1.13671875,0.43359375,-6.1640625,7.6328125,-0.4375,0.212890625,0.5859375,0.1015625
615,6111873,6411873,0.701904297,-0.182983398,-0.55456543,0.407897949,-0.76953125,-1.13671875,0.43359375,-6.1640625,7.6328125,-0.4375,0.134765625,0.51953125,0.111328125
616,6127108,6427108,0.703430176,-0.182678223,-0.552490234,0.408203125,-0.79296875,-0.61328125,0.3359375,-6.140625,7.6484375,-0.53125,0.134765625,0.51953125,0.111328125
617,6132850,6432850,0.704528809,-0.182434082,-0.550964355,0.40838623,-0.79296875,-0.61328125,0.3359375,-6.140625,7.6484375,-0.53125,0.08984375,0.318359375,0.0625
618,6141126,6441126,0.705444336,-0.182250977,-0.549804688,0.408447266,-0.6953125,-0.546875,0.5625,-6.125,7.65625,-0.6015625,0.08984375,0.318359375,0.0625
619,6152099,6452099,0.706359863,-0.181945801,-0.54888916,0.40826416,-0.6953125,-0.546875,0.5625,-6.125,7.65625,-0.6015625,0.0859375,0.240234375,-0.0625
620,6158457,6458457,0.707336426,-0.181335449,-0.548034668,0.40802002,-0.6171875,-0.5546875,1.06640625,-6.125,7.6640625,-0.6484375,0.0859375,0.240234375,-0.0625
621,6172751,6472751,0.708251953,-0.180419922,-0.547363281,0.407653809,-0.6171875,-0.5546875,1.06640625,-6.125,7.6640625,-0.6484375,0.04296875,0.27734375,-0.177734375
622,6178730,6478730,0.709350586,-0.179504395,-0.54675293,0.407043457,-1.40625,-0.68359375,1.60546875,-6.140625,7.640625,-0.6875,0.04296875,0.27734375,-0.177734375
623,6192204,6492204,0.710449219,-0.178771973,-0.546386719,0.405944824,-1.40625,-0.68359375,1.60546875,-6.140625,7.640625,-0.6875,0.220703125,0.14453125,-0.2421875
624,6206539,6506539,0.711364746,-0.178344727,-0.546325684,0.404541016,-1.53125,-1.03515625,0.65625,-6.171875,7.609375,-0.734375,0.220703125,0.14453125,-0.2421875
625,6216293,6516293,0.711975098,-0.178100586,-0.54675293,0.403015137,-1.53125,-1.03515625,0.65625,-6.171875,7.609375,-0.734375,0.203125,-0.087890625,-0.26953125
626,6220634,6520634,0.712219238,-0.177856445,-0.547546387,0.401672363,-0.609375,-0.66015625,0.6171875,-6.2109375,7.578125,-0.7734375,0.203125,-0.087890625,-0.26953125
627,6232835,6532835,0.712097168,-0.177429199,-0.548583984,0.40057373,-0.609375,-0.66015625,0.6171875,-6.2109375,7.578125,-0.7734375,0.001953125,-0.1796875,-0.251953125
628,6243172,6543172,0.711669922,-0.176818848,-0.549804688,0.399902344,-0.21875,-0.3046875,0.6484375,-6.2578125,7.53125,-0.765625,0.001953125,-0.1796875,-0.251953125
629,6253147,6553147,0.711120605,-0.176147461,-0.551208496,0.399353027,-0.21875,-0.3046875,0.6484375,-6.2578125,7.53125,-0.765625,-0.10546875,-0.2421875,-0.25390625
630,6260818,6560818,0.710449219,-0.175598145,-0.552734375,0.398681641,-0.484375,-0.28125,0.34765625,-6.296875,7.5078125,-0.734375,-0.10546875,-0.2421875,-0.25390625
631,6272828,6572828,0.709838867,-0.175292969,-0.554443359,0.397460938,-0.484375,-0.28125,0.34765625,-6.296875,7.5078125,-0.734375,0.08203125,-0.365234375,-0.310546875
632,6281292,6581292,0.709350586,-0.175354004,-0.556335449,0.395629883,-1.3515625,-0.46484375,0.53125,-6.3515625,7.4609375,-0.6875,0.08203125,-0.365234375,-0.310546875
633,6293127,6593127,0.709106445,-0.175720215,-0.558532715,0.392944336,-1.3515625,-0.46484375,0.53125,-6.3515625,7.4609375,-0.6875,0.396484375,-0.482421875,-0.44140625
634,6300427,6600427,0.708984375,-0.176208496,-0.560852051,0.389587402,-1.5546875,-0.7734375,0.66796875,-6.4140625,7.421875,-0.671875,0.396484375,-0.482421875,-0.44140625
635,6312243,6612243,0.708862305,-0.176574707,-0.563476562,0.385742188,-1.5546875,-0.7734375,0.66796875,-6.4140625,7.421875,-0.671875,0.501953125,-0.583984375,-0.65234375
636,6323166,6623166,0.708679199,-0.176513672,-0.566650391,0.381469727,-1.1171875,-1.14453125,0.66015625,-6.5078125,7.3359375,-0.6640625,0.501953125,-0.583984375,-0.65234375
637,6332538,6632538,0.708312988,-0.17590332,-0.570068359,0.377319336,-1.1171875,-1.14453125,0.66015625,-6.5078125,7.3359375,-0.6640625,0.3046875,-0.65234375,-0.857421875
638,6340931,6640931,0.707580566,-0.174682617,-0.573974609,0.373352051,-0.5390625,-0.9609375,0.6015625,-6.625,7.2265625,-0.640625,0.3046875,-0.65234375,-0.857421875
639,6352485,6652485,0.706604004,-0.172973633,-0.578063965,0.369689941,-0.5390625,-0.9609375,0.6015625,-6.625,7.2265625,-0.640625,0.048828125,-0.748046875,-0.98828125
640,6361857,6661857,0.70526123,-0.170959473,-0.582519531,0.366088867,-0.16796875,-0.60546875,0.84375,-6.765625,7.1015625,-0.578125,0.048828125,-0.748046875,-0.98828125
641,6374312,6674312,0.703735352,-0.168701172,-0.587341309,0.362365723,-0.16796875,-0.60546875,0.84375,-6.765625,7.1015625,-0.578125,-0.02734375,-0.818359375,-1.02539062
642,6377919,6677919,0.702087402,-0.166503906,-0.592102051,0.358825684,-0.43359375,-0.76171875,1.03515625,-6.921875,6.953125,-0.4609375,-0.02734375,-0.818359375,-1.02539062
643,6393565,6693565,0.700317383,-0.16418457,-0.596984863,0.355285645,-0.43359375,-0.76171875,1.03515625,-6.921875,6.953125,-0.4609375,-0.06640625,-0.859375,-1.05859375
644,6397982,6697982,0.698486328,-0.161682129,-0.601989746,0.3515625,-0.73828125,-0.96484375,0.9375,-7.078125,6.8125,-0.328125,-0.06640625,-0.859375,-1.05859375
645,6413106,6713106,0.696594238,-0.158996582,-0.607116699,0.347717285,-0.73828125,-0.96484375,0.9375,-7.078125,6.8125,-0.328125,-0.080078125,-0.875,-1.1484375
646,6417889,6717889,0.694580078,-0.156188965,-0.612426758,0.34362793,-0.7734375,-0.49609375,0.4609375,-7.234375,6.6484375,-0.1953125,-0.080078125,-0.875,-1.1484375
647,6433192,6733192,0.692260742,-0.153381348,-0.618103027,0.339477539,-0.7734375,-0.49609375,0.4609375,-7.234375,6.6484375,-0.1953125,-0.107421875,-1.04296875,-1.19335938
648,6441507,6741507,0.68951416,-0.151062012,-0.623962402,0.335266113,-0.1875,0.6015625,-0.19140625,-7.3984375,6.46875,-0.0390625,-0.107421875,-1.04296875,-1.19335938
649,6451943,6751943,0.686462402,-0.149597168,-0.630004883,0.330932617,-0.1875,0.6015625,-0.19140625,-7.3984375,6.46875,-0.0390625,0.11328125,-1.30664062,-1.00390625
650,6460030,6760030,0.68359375,-0.148803711,-0.635681152,0.32635498,0.6796875,1.04296875,-0.5625,-7.5390625,6.296875,0.140625,0.11328125,-1.30664062,-1.00390625
651,6473049,6773049,0.681274414,-0.147766113,-0.640686035,0.321777344,0.6796875,1.04296875,-0.5625,-7.5390625,6.296875,0.140625,0.166015625,-0.90625,-0.990234375
652,6483550,6783550,0.679382324,-0.146179199,-0.645263672,0.317321777,-0.0390625,0.88671875,-0.64453125,-7.6640625,6.1484375,0.296875,0.166015625,-0.90625,-0.990234375
653,6493778,6793778,0.67755127,-0.144714355,-0.649658203,0.312927246,-0.0390625,0.88671875,-0.64453125,-7.6640625,6.1484375,0.296875,0.19140625,-0.982421875,-1.046875
654,6500212,6800212,0.675292969,-0.143493652,-0.654602051,0.308044434,-0.609375,0.734375,-1.18359375,-7.78125,5.9921875,0.4140625,0.19140625,-0.982421875,-1.046875
655,6512935,6812935,0.672851562,-0.14263916,-0.659729004,0.302734375,-0.609375,0.734375,-1.18359375,-7.78125,5.9921875,0.4140625,0.333984375,-1.0546875,-0.982421875
656,6519805,6819805,0.670898438,-0.142150879,-0.664123535,0.297790527,0.2265625,0.59375,-0.85546875,-7.890625,5.828125,0.546875,0.333984375,-1.0546875,-0.982421875
657,6533594,6833594,0.669006348,-0.142028809,-0.668395996,0.292297363,0.2265625,0.59375,-0.85546875,-7.890625,5.828125,0.546875,0.548828125,-0.943359375,-0.888671875
658,6539723,6839723,0.667419434,-0.14251709,-0.672241211,0.286865234,0.3671875,0.12890625,-1.578125,-7.9921875,5.6796875,0.65625,0.548828125,-0.943359375,-0.888671875
659,6552564,6852564,0.66595459,-0.143371582,-0.675964355,0.28112793,0.3671875,0.12890625,-1.578125,-7.9921875,5.6796875,0.65625,0.677734375,-0.859375,-0.78515625
660,6562521,6862521,0.664489746,-0.144287109,-0.679443359,0.275695801,-0.05078125,0.59765625,-1.08203125,-8.0703125,5.5546875,0.734375,0.677734375,-0.859375,-0.78515625
661,6573344,6873344,0.662963867,-0.145202637,-0.682800293,0.270568848,-0.05078125,0.59765625,-1.08203125,-8.0703125,5.5546875,0.734375,0.587890625,-0.849609375,-0.681640625
662,6579077,6879077,0.661132812,-0.146179199,-0.686279297,0.265686035,0.1015625,0.859375,-0.42578125,-8.1484375,5.4453125,0.8046875,0.587890625,-0.849609375,-0.681640625
663,6593427,6893427,0.658996582,-0.147155762,-0.689819336,0.261169434,0.1015625,0.859375,-0.42578125,-8.1484375,5.4453125,0.8046875,0.509765625,-0.984375,-0.615234375
664,6602174,6902174,0.656799316,-0.148071289,-0.693481445,0.256530762,0.15625,0.76171875,-0.08984375,-8.203125,5.3515625,0.890625,0.509765625,-0.984375,-0.615234375
665,6611936,6911936,0.654724121,-0.148925781,-0.696838379,0.25213623,0.15625,0.76171875,-0.08984375,-8.203125,5.3515625,0.890625,0.521484375,-0.912109375,-0.634765625
666,6620222,6920222,0.652709961,-0.149841309,-0.700134277,0.247558594,-0.1015625,0.6640625,-0.2265625,-8.25,5.2578125,0.9921875,0.521484375,-0.912109375,-0.634765625
667,6635054,6935054,0.650634766,-0.151000977,-0.703491211,0.242980957,-0.1015625,0.6640625,-0.2265625,-8.25,5.2578125,0.9921875,0.564453125,-0.92578125,-0.568359375
668,6641520,6941520,0.64855957,-0.152160645,-0.706542969,0.238769531,0.17578125,0.26171875,-0.015625,-8.296875,5.1640625,1.0859375,0.564453125,-0.92578125,-0.568359375
669,6653896,6953896,0.646240234,-0.153442383,-0.709838867,0.23449707,0.17578125,0.26171875,-0.015625,-8.296875,5.1640625,1.0859375,0.494140625,-0.9140625,-0.462890625
670,6657513,6957513,0.643859863,-0.154724121,-0.712890625,0.230834961,0.12890625,-0.2421875,-0.1953125,-8.328125,5.09375,1.1875,0.494140625,-0.9140625,-0.462890625
671,6672356,6972356,0.641235352,-0.156066895,-0.716125488,0.227050781,0.12890625,-0.2421875,-0.1953125,-8.328125,5.09375,1.1875,0.45703125,-0.943359375,-0.408203125
672,6681165,6981165,0.638793945,-0.157409668,-0.719177246,0.223388672,-0.0859375,-0.21875,-0.265625,-8.34375,5.03125,1.296875,0.45703125,-0.943359375,-0.408203125
673,6691965,6991965,0.636230469,-0.158813477,-0.722412109,0.219299316,-0.0859375,-0.21875,-0.265625,-8.34375,5.03125,1.296875,0.505859375,-0.947265625,-0.4921875
674,6700451,7000451,0.633850098,-0.159973145,-0.725463867,0.215148926,-0.4765625,-0.234375,-0.18359375,-8.375,4.96875,1.40625,0.505859375,-0.947265625,-0.4921875
675,6712044,7012044,0.631530762,-0.161071777,-0.728637695,0.210693359,-0.4765625,-0.234375,-0.18359375,-8.375,4.96875,1.40625,0.53125,-0.90625,-0.560546875
676,6720253,7020253,0.629089355,-0.16229248,-0.731750488,0.206054688,-0.453125,-0.1640625,0.08984375,-8.3984375,4.8984375,1.515625,0.53125,-0.90625,-0.560546875
677,6733490,7033490,0.626586914,-0.163635254,-0.734863281,0.201416016,-0.453125,-0.1640625,0.08984375,-8.3984375,4.8984375,1.515625,0.611328125,-1.00585938,-0.57421875
678,6739634,7039634,0.623962402,-0.165039062,-0.738037109,0.196594238,-0.3828125,-0.125,-0.15625,-8.4296875,4.8203125,1.609375,0.611328125,-1.00585938,-0.57421875
679,6752812,7052812,0.621154785,-0.166687012,-0.741394043,0.19152832,-0.3828125,-0.125,-0.15625,-8.4296875,4.8203125,1.609375,0.62890625,-1.05078125,-0.55859375
680,6761521,7061521,0.618286133,-0.168151855,-0.744689941,0.186706543,-0.0234375,-0.0078125,0.04296875,-8.4453125,4.7421875,1.71875,0.62890625,-1.05078125,-0.55859375
681,6771931,7071931,0.615478516,-0.169555664,-0.747802734,0.182189941,-0.0234375,-0.0078125,0.04296875,-8.4453125,4.7421875,1.71875,0.548828125,-0.978515625,-0.494140625
682,6779929,7079929,0.612670898,-0.171020508,-0.750854492,0.17791748,0.22265625,-0.01171875,0.03125,-8.4609375,4.671875,1.84375,0.548828125,-0.978515625,-0.494140625
683,6793848,7093848,0.609619141,-0.172546387,-0.75390625,0.173828125,0.22265625,-0.01171875,0.03125,-8.4609375,4.671875,1.84375,0.521484375,-1.06445312,-0.400390625
684,6802517,7102517,0.606384277,-0.174255371,-0.756958008,0.170043945,-0.16015625,0.39453125,0.09765625,-8.4609375,4.609375,1.96875,0.521484375,-1.06445312,-0.400390625
685,6811871,7111871,0.602783203,-0.176086426,-0.760314941,0.166259766,-0.16015625,0.39453125,0.09765625,-8.4609375,4.609375,1.96875,0.458984375,-1.10351562,-0.31640625
686,6819823,7119823,0.599182129,-0.177612305,-0.76348877,0.162780762,-0.12890625,0.73828125,0.2265625,-8.453125,4.5703125,2.109375,0.458984375,-1.10351562,-0.31640625
687,6832561,7132561,0.595458984,-0.178833008,-0.766845703,0.159484863,-0.12890625,0.73828125,0.2265625,-8.453125,4.5703125,2.109375,0.310546875,-1.09570312,-0.33203125
688,6840888,7140888,0.592041016,-0.1796875,-0.769836426,0.156616211,0.31640625,1.046875,-0.16015625,-8.4375,4.53125,2.265625,0.310546875,-1.09570312,-0.33203125
689,6852113,7152113,0.588562012,-0.180358887,-0.772949219,0.153869629,0.31640625,1.046875,-0.16015625,-8.4375,4.53125,2.265625,0.181640625,-0.958984375,-0.2890625
690,6860340,7160340,0.585266113,-0.180908203,-0.775756836,0.151489258,0.4921875,0.703125,-0.34765625,-8.421875,4.4921875,2.4140625,0.181640625,-0.958984375,-0.2890625
691,6872933,7172933,0.58215332,-0.181335449,-0.778381348,0.149414062,0.4921875,0.703125,-0.34765625,-8.421875,4.4921875,2.4140625,0.11328125,-0.826171875,-0.208984375
692,6882010,7182010,0.579345703,-0.18182373,-0.780700684,0.147644043,0.54296875,0.6953125,-0.52734375,-8.3984375,4.4609375,2.5546875,0.11328125,-0.826171875,-0.208984375
693,6893329,7193329,0.576599121,-0.182373047,-0.782897949,0.146240234,0.54296875,0.6953125,-0.52734375,-8.3984375,4.4609375,2.5546875,0.087890625,-0.732421875,-0.064453125
694,6899732,7199732,0.573791504,-0.183166504,-0.784973145,0.145202637,0.62890625,0.83203125,-0.71875,-8.3671875,4.4375,2.671875,0.087890625,-0.732421875,-0.064453125
695,6912656,7212656,0.571166992,-0.183959961,-0.786804199,0.144592285,0.62890625,0.83203125,-0.71875,-8.3671875,4.4375,2.671875,0.056640625,-0.650390625,0.0703125
696,6922671,7222671,0.568725586,-0.184753418,-0.788452148,0.144287109,0.82421875,1.0078125,-0.67578125,-8.3359375,4.453125,2.78125,0.056640625,-0.650390625,0.0703125
697,6933977,7233977,0.56652832,-0.18536377,-0.789794922,0.144348145,0.82421875,1.0078125,-0.67578125,-8.3359375,4.453125,2.78125,-0.060546875,-0.46484375,0.138671875
698,6937575,7237575,0.564758301,-0.185668945,-0.79095459,0.144836426,0.7109375,1.22265625,-0.80078125,-8.296875,4.46875,2.8671875,-0.060546875,-0.46484375,0.138671875
699,6952850,7252850,0.563293457,-0.185546875,-0.791870117,0.145751953,0.7109375,1.22265625,-0.80078125,-8.296875,4.46875,2.8671875,-0.21875,-0.220703125,0.162109375
700,6961491,7261491,0.562316895,-0.185241699,-0.792419434,0.146911621,0.78515625,1.1328125,-1.140625,-8.2578125,4.484375,2.9375,-0.21875,-0.220703125,0.162109375
701,6972312,7272312,0.561828613,-0.184814453,-0.792602539,0.14831543,0.78515625,1.1328125,-1.140625,-8.2578125,4.484375,2.9375,-0.265625,0.025390625,0.208984375
702,6978040,7278040,0.561767578,-0.184265137,-0.792419434,0.150146484,1.0703125,0.84765625,-1.29296875,-8.234375,4.5,2.9765625,-0.265625,0.025390625,0.208984375
703,6992403,7292403,0.562072754,-0.18359375,-0.791931152,0.152282715,1.0703125,0.84765625,-1.29296875,-8.234375,4.5,2.9765625,-0.32421875,0.283203125,0.2890625
704,7001512,7301512,0.562927246,-0.182739258,-0.79107666,0.154785156,1.16796875,0.578125,-1.25390625,-8.21875,4.5390625,2.9765625,-0.32421875,0.283203125,0.2890625
705,7012965,7312965,0.564086914,-0.18157959,-0.789916992,0.157653809,1.16796875,0.578125,-1.25390625,-8.21875,4.5390625,2.9765625,-0.46875,0.54296875,0.3359375
706,7018706,7318706,0.565856934,-0.180053711,-0.788330078,0.161071777,0.9375,0.59375,-1,-8.21875,4.5625,2.953125,-0.46875,0.54296875,0.3359375
707,7032581,7332581,0.568115234,-0.178222656,-0.786376953,0.164794922,0.9375,0.59375,-1,-8.21875,4.5625,2.953125,-0.58984375,0.8359375,0.361328125
708,7041259,7341259,0.570800781,-0.176147461,-0.784057617,0.168762207,0.671875,0.37109375,-0.921875,-8.21875,4.59375,2.875,-0.58984375,0.8359375,0.361328125
709,7052670,7352670,0.573730469,-0.173950195,-0.781433105,0.172973633,0.671875,0.37109375,-0.921875,-8.21875,4.59375,2.875,-0.638671875,1,0.3984375
710,7058407,7358407,0.576721191,-0.17175293,-0.778808594,0.177246094,0.37890625,0.2265625,-0.71484375,-8.234375,4.625,2.78125,-0.638671875,1,0.3984375
711,7072309,7372309,0.579711914,-0.169433594,-0.776000977,0.18170166,0.37890625,0.2265625,-0.71484375,-8.234375,4.625,2.78125,-0.681640625,1.04101562,0.44140625
712,7081526,7381526,0.582702637,-0.167236328,-0.773193359,0.186096191,0.35546875,0.38671875,-0.4921875,-8.25,4.65625,2.671875,-0.681640625,1.04101562,0.44140625
713,7092961,7392961,0.5859375,-0.164978027,-0.770080566,0.190856934,0.35546875,0.38671875,-0.4921875,-8.25,4.65625,2.671875,-0.638671875,1.0859375,0.470703125
714,7098700,7398700,0.589111328,-0.162902832,-0.766906738,0.195556641,0.2109375,0.4921875,-0.2578125,-8.2578125,4.703125,2.5546875,-0.638671875,1.0859375,0.470703125
715,7110984,7410984,0.592407227,-0.160644531,-0.76361084,0.200500488,0.2109375,0.4921875,-0.2578125,-8.2578125,4.703125,2.5546875,-0.71875,1.17578125,0.525390625
716,7122532,7422532,0.595703125,-0.15838623,-0.760192871,0.205383301,0.296875,0.4453125,-0.05859375,-8.265625,4.75,2.4296875,-0.71875,1.17578125,0.525390625
717,7132157,7432157,0.599365234,-0.155944824,-0.756286621,0.210876465,0.296875,0.4453125,-0.05859375,-8.265625,4.75,2.4296875,-0.7109375,1.26171875,0.595703125
718,7137882,7437882,0.602966309,-0.153747559,-0.752319336,0.216430664,0.07421875,0.3828125,-0.109375,-8.2734375,4.8125,2.2890625,-0.7109375,1.26171875,0.595703125
719,7151191,7451191,0.606323242,-0.151611328,-0.748413086,0.221923828,0.07421875,0.3828125,-0.109375,-8.2734375,4.8125,2.2890625,-0.734375,1.23632812,0.65625
720,7165793,7465793,0.609436035,-0.149536133,-0.744628906,0.227539062,-0.2109375,0.54296875,-0.16015625,-8.2578125,4.8828125,2.1484375,-0.734375,1.23632812,0.65625
721,7174294,7474294,0.612304688,-0.147521973,-0.740905762,0.233154297,-0.2109375,0.54296875,-0.16015625,-8.2578125,4.8828125,2.1484375,-0.755859375,1.125,0.66796875
722,7177897,7477897,0.614990234,-0.145507812,-0.737365723,0.238525391,-0.37890625,0.609375,-0.1171875,-8.2421875,4.96875,2.03125,-0.755859375,1.125,0.66796875
723,7191735,7491735,0.617858887,-0.143127441,-0.733581543,0.24420166,-0.37890625,0.609375,-0.1171875,-8.2421875,4.96875,2.03125,-0.787109375,1.1484375,0.60546875
724,7201526,7501526,0.620788574,-0.140686035,-0.729736328,0.249633789,-0.05078125,0.1875,0.0390625,-8.2265625,5.046875,1.9140625,-0.787109375,1.1484375,0.60546875
725,7211897,7511897,0.623779297,-0.138244629,-0.725830078,0.254882812,-0.05078125,0.1875,0.0390625,-8.2265625,5.046875,1.9140625,-0.72265625,1.20117188,0.576171875
726,7218835,7518835,0.626647949,-0.136108398,-0.721984863,0.25982666,-0.1484375,-0.4296875,-0.23828125,-8.203125,5.125,1.8046875,-0.72265625,1.20117188,0.576171875
727,7231300,7531300,0.629638672,-0.134338379,-0.717895508,0.264770508,-0.1484375,-0.4296875,-0.23828125,-8.203125,5.125,1.8046875,-0.5390625,1.1015625,0.607421875
728,7246761,7546761,0.632324219,-0.133178711,-0.714111328,0.269165039,-0.2578125,-0.65234375,-0.33984375,-8.171875,5.1953125,1.6796875,-0.5390625,1.1015625,0.607421875
729,7251290,7551290,0.63482666,-0.132629395,-0.710510254,0.273193359,-0.2578125,-0.65234375,-0.33984375,-8.171875,5.1953125,1.6796875,-0.318359375,0.888671875,0.625
730,7259297,7559297,0.637023926,-0.132324219,-0.707092285,0.276916504,-0.44140625,-0.2109375,-0.29296875,-8.140625,5.2890625,1.5546875,-0.318359375,0.888671875,0.625
731,7271960,7571960,0.639099121,-0.132019043,-0.703796387,0.280700684,-0.44140625,-0.2109375,-0.29296875,-8.140625,5.2890625,1.5546875,-0.31640625,0.81640625,0.603515625
732,7281884,7581884,0.640991211,-0.131652832,-0.700683594,0.284240723,-0.59765625,0.1953125,-0.11328125,-8.1015625,5.3828125,1.453125,-0.31640625,0.81640625,0.603515625
733,7293603,7593603,0.642944336,-0.131164551,-0.697509766,0.288024902,-0.59765625,0.1953125,-0.11328125,-8.1015625,5.3828125,1.453125,-0.365234375,0.775390625,0.5546875
