sample_index,offset_us,timestamp_us,sequence,accel_x_raw,accel_y_raw,accel_z_raw,gyro_x_raw,gyro_y_raw,gyro_z_raw,accel_x_g,accel_y_g,accel_z_g,gyro_x_dps,gyro_y_dps,gyro_z_dps
0,0,300000,0,-6035,6214,568,-349,761,802,-0.736694336,0.758544922,0.0693359375,-21.3012695,46.4477539,48.9501953
1,5008,305008,1,-5790,6319,284,-458,824,804,-0.706787109,0.771362305,0.0346679688,-27.9541016,50.2929688,49.0722656
2,10000,310000,2,-5464,6365,155,-572,900,805,-0.666992188,0.776977539,0.0189208984,-34.9121094,54.9316406,49.1333008
3,15008,315008,3,-5187,6397,186,-722,973,820,-0.633178711,0.780883789,0.0227050781,-44.0673828,59.387207,50.0488281
4,20000,320000,4,-5092,6435,121,-893,1035,834,-0.621582031,0.785522461,0.0147705078,-54.5043945,63.1713867,50.9033203
5,25008,325008,5,-5053,6458,-89,-1034,1121,831,-0.616821289,0.788330078,-0.0108642578,-63.1103516,68.4204102,50.7202148
6,30000,330000,6,-5038,6480,-324,-1119,1239,818,-0.614990234,0.791015625,-0.0395507812,-68.2983398,75.6225586,49.9267578
7,35008,335008,7,-5128,6468,-489,-1150,1314,798,-0.625976562,0.789550781,-0.0596923828,-70.1904297,80.2001953,48.7060547
8,40000,340000,8,-5339,6340,-585,-1120,1320,762,-0.651733398,0.773925781,-0.0714111328,-68.359375,80.5664062,46.5087891
9,45008,345008,9,-5631,6079,-618,-1018,1288,716,-0.68737793,0.74206543,-0.0754394531,-62.1337891,78.6132812,43.7011719
10,50000,350000,10,-6000,5751,-558,-848,1231,680,-0.732421875,0.702026367,-0.0681152344,-51.7578125,75.1342773,41.5039062
11,55008,355008,11,-6416,5354,-447,-610,1138,649,-0.783203125,0.653564453,-0.0545654297,-37.2314453,69.4580078,39.6118164
12,60000,360000,12,-6771,4923,-241,-327,1012,610,-0.826538086,0.600952148,-0.0294189453,-19.9584961,61.7675781,37.2314453
13,65008,365008,13,-7082,4544,75,-31,879,574,-0.864501953,0.5546875,0.00915527344,-1.89208984,53.6499023,35.0341797
14,70000,370000,14,-7337,4279,375,248,767,543,-0.895629883,0.522338867,0.0457763672,15.1367188,46.8139648,33.1420898
15,75008,375008,15,-7545,4139,598,491,683,515,-0.921020508,0.505249023,0.0729980469,29.9682617,41.6870117,31.4331055
16,80000,380000,16,-7626,4145,726,689,624,485,-0.930908203,0.505981445,0.0886230469,42.0532227,38.0859375,29.6020508
17,85008,385008,17,-7552,4320,729,818,589,458,-0.921875,0.52734375,0.0889892578,49.9267578,35.949707,27.9541016
18,90000,390000,18,-7298,4466,611,872,571,452,-0.890869141,0.545166016,0.0745849609,53.2226562,34.8510742,27.5878906
19,95008,395008,19,-6840,4550,437,896,576,462,-0.834960938,0.555419922,0.0533447266,54.6875,35.15625,28.1982422
20,100000,400000,20,-6307,4820,364,892,584,460,-0.769897461,0.588378906,0.0444335938,54.4433594,35.6445312,28.0761719
21,105008,405008,21,-5745,5172,375,807,587,462,-0.701293945,0.631347656,0.0457763672,49.2553711,35.8276367,28.1982422
22,110000,410000,22,-5321,5332,348,646,646,501,-0.649536133,0.650878906,0.0424804688,39.4287109,39.4287109,30.5786133
23,115008,415008,23,-5273,5532,327,504,799,554,-0.643676758,0.675292969,0.0399169922,30.7617188,48.7670898,33.8134766
24,120000,420000,24,-5452,5898,339,404,951,577,-0.665527344,0.719970703,0.0413818359,24.6582031,58.0444336,35.2172852
25,125008,425008,25,-5718,6318,362,278,1011,577,-0.697998047,0.771240234,0.0441894531,16.9677734,61.706543,35.2172852
26,130000,430000,26,-5802,6444,334,101,971,570,-0.708251953,0.786621094,0.0407714844,6.16455078,59.2651367,34.7900391
27,135008,435008,27,-5599,6244,242,-96,875,580,-0.68347168,0.762207031,0.0295410156,-5.859375,53.4057617,35.4003906
28,140000,440000,28,-5485,6116,189,-262,781,595,-0.669555664,0.746582031,0.0230712891,-15.9912109,47.668457,36.315918
29,145008,445008,29,-5483,6093,184,-381,701,578,-0.669311523,0.743774414,0.0224609375,-23.2543945,42.7856445,35.2783203
30,150000,450000,30,-5542,6155,212,-434,625,540,-0.676513672,0.751342773,0.0258789062,-26.4892578,38.1469727,32.9589844
31,155008,455008,31,-5746,6261,320,-421,544,501,-0.701416016,0.764282227,0.0390625,-25.6958008,33.203125,30.5786133
32,160000,460000,32,-6164,6375,554,-376,464,458,-0.752441406,0.778198242,0.0676269531,-22.9492188,28.3203125,27.9541016
33,165008,465008,33,-6462,6386,785,-342,366,389,-0.788818359,0.779541016,0.0958251953,-20.8740234,22.3388672,23.7426758
34,170000,470000,34,-6486,6227,873,-319,248,321,-0.791748047,0.760131836,0.106567383,-19.4702148,15.1367188,19.5922852
35,175008,475008,35,-6446,6038,886,-272,141,272,-0.786865234,0.737060547,0.108154297,-16.6015625,8.60595703,16.6015625
36,180000,480000,36,-6273,5916,929,-206,83,219,-0.76574707,0.722167969,0.11340332,-12.5732422,5.06591797,13.3666992
37,185008,485008,37,-5946,5818,970,-157,81,160,-0.725830078,0.710205078,0.118408203,-9.58251953,4.94384766,9.765625
38,190000,490000,38,-5584,5759,947,-135,108,106,-0.681640625,0.70300293,0.115600586,-8.23974609,6.59179688,6.46972656
39,195008,495008,39,-5289,5754,857,-127,143,61,-0.645629883,0.702392578,0.104614258,-7.75146484,8.72802734,3.72314453
40,200000,500000,40,-5148,5795,740,-123,181,17,-0.628417969,0.707397461,0.0903320312,-7.50732422,11.0473633,1.03759766
41,205008,505008,41,-5110,5877,604,-116,221,-26,-0.623779297,0.717407227,0.0737304688,-7.08007812,13.4887695,-1.58691406
42,210000,510000,42,-5094,5925,422,-105,247,-58,-0.621826172,0.723266602,0.0515136719,-6.40869141,15.0756836,-3.54003906
43,215008,515008,43,-5080,5932,244,-94,237,-80,-0.620117188,0.724121094,0.0297851562,-5.73730469,14.465332,-4.8828125
44,220000,520000,44,-5052,5938,92,-77,204,-96,-0.616699219,0.724853516,0.0112304688,-4.69970703,12.4511719,-5.859375
45,225008,525008,45,-4992,5937,-32,-49,173,-105,-0.609375,0.724731445,-0.00390625,-2.99072266,10.559082,-6.40869141
46,230000,530000,46,-4930,5962,-76,-16,151,-111,-0.601806641,0.727783203,-0.00927734375,-0.9765625,9.21630859,-6.77490234
47,235008,535008,47,-4942,5994,-43,9,135,-115,-0.603271484,0.731689453,-0.00524902344,0.549316406,8.23974609,-7.01904297
48,240000,540000,48,-5018,6004,14,21,124,-120,-0.612548828,0.732910156,0.00170898438,1.28173828,7.56835938,-7.32421875
49,245008,545008,49,-5136,5982,60,23,119,-119,-0.626953125,0.730224609,0.00732421875,1.40380859,7.26318359,-7.26318359
50,250000,550000,50,-5306,5957,72,23,113,-112,-0.647705078,0.727172852,0.0087890625,1.40380859,6.89697266,-6.8359375
51,255008,555008,51,-5441,5952,6,18,94,-103,-0.66418457,0.7265625,0.000732421875,1.09863281,5.73730469,-6.28662109
52,260000,560000,52,-5497,5932,-154,14,57,-89,-0.671020508,0.724121094,-0.0187988281,0.854492188,3.47900391,-5.43212891
53,265008,565008,53,-5552,5943,-316,25,18,-67,-0.677734375,0.725463867,-0.0385742188,1.52587891,1.09863281,-4.08935547
54,270000,570000,54,-5620,5969,-429,38,-19,-43,-0.686035156,0.728637695,-0.0523681641,2.31933594,-1.15966797,-2.62451172
55,275008,575008,55,-5677,5962,-524,51,-57,-16,-0.692993164,0.727783203,-0.0639648438,3.11279297,-3.47900391,-0.9765625
56,280000,580000,56,-5733,5989,-584,69,-99,10,-0.699829102,0.731079102,-0.0712890625,4.21142578,-6.04248047,0.610351562
57,285008,585008,57,-5775,6057,-562,86,-141,37,-0.704956055,0.739379883,-0.0686035156,5.24902344,-8.60595703,2.25830078
58,290000,590000,58,-5775,6126,-517,95,-172,53,-0.704956055,0.747802734,-0.0631103516,5.79833984,-10.4980469,3.23486328
59,295008,595008,59,-5752,6205,-478,100,-193,55,-0.702148438,0.757446289,-0.0583496094,6.10351562,-11.7797852,3.35693359
60,300000,600000,60,-5735,6282,-424,97,-199,48,-0.700073242,0.766845703,-0.0517578125,5.92041016,-12.1459961,2.9296875
61,305008,605008,61,-5731,6346,-382,84,-195,36,-0.699584961,0.774658203,-0.0466308594,5.12695312,-11.9018555,2.19726562
62,310000,610000,62,-5732,6436,-344,59,-189,23,-0.699707031,0.785644531,-0.0419921875,3.60107422,-11.5356445,1.40380859
63,315008,615008,63,-5693,6558,-310,25,-187,12,-0.694946289,0.800537109,-0.0378417969,1.52587891,-11.4135742,0.732421875
64,320000,620000,64,-5609,6652,-286,-9,-190,6,-0.684692383,0.812011719,-0.0349121094,-0.549316406,-11.5966797,0.366210938
65,325008,625008,65,-5477,6710,-252,-37,-194,1,-0.668579102,0.819091797,-0.0307617188,-2.25830078,-11.8408203,0.0610351562
66,330000,630000,66,-5338,6809,-163,-62,-200,1,-0.651611328,0.831176758,-0.0198974609,-3.78417969,-12.2070312,0.0610351562
67,335008,635008,67,-5256,6974,-36,-103,-199,3,-0.641601562,0.851318359,-0.00439453125,-6.28662109,-12.1459961,0.183105469
68,340000,640000,68,-5175,7117,40,-159,-191,0,-0.631713867,0.868774414,0.0048828125,-9.70458984,-11.6577148,0
69,345008,645008,69,-5073,7186,61,-205,-186,-1,-0.619262695,0.877197266,0.00744628906,-12.512207,-11.3525391,-0.0610351562
70,350000,650000,70,-5012,7215,65,-233,-182,3,-0.611816406,0.880737305,0.00793457031,-14.2211914,-11.1083984,0.183105469
71,355008,655008,71,-4948,7219,72,-261,-175,3,-0.604003906,0.881225586,0.0087890625,-15.9301758,-10.6811523,0.183105469
72,360000,660000,72,-4821,7184,99,-304,-159,3,-0.588500977,0.876953125,0.0120849609,-18.5546875,-9.70458984,0.183105469
73,365008,665008,73,-4734,7090,36,-352,-137,6,-0.577880859,0.865478516,0.00439453125,-21.484375,-8.36181641,0.366210938
74,370000,670000,74,-4672,6978,-66,-393,-127,3,-0.5703125,0.851806641,-0.00805664062,-23.9868164,-7.75146484,0.183105469
75,375008,675008,75,-4618,6862,-114,-430,-127,-5,-0.563720703,0.837646484,-0.0139160156,-26.2451172,-7.75146484,-0.305175781
76,380000,680000,76,-4683,6743,-163,-461,-127,-16,-0.571655273,0.823120117,-0.0198974609,-28.137207,-7.75146484,-0.9765625
77,385008,685008,77,-4814,6619,-209,-482,-119,-25,-0.587646484,0.807983398,-0.0255126953,-29.4189453,-7.26318359,-1.52587891
78,390000,690000,78,-4962,6492,-231,-489,-103,-29,-0.605712891,0.792480469,-0.0281982422,-29.8461914,-6.28662109,-1.77001953
79,395008,695008,79,-5079,6395,-233,-490,-96,-33,-0.619995117,0.780639648,-0.0284423828,-29.9072266,-5.859375,-2.01416016
80,400000,700000,80,-5108,6312,-203,-488,-108,-31,-0.623535156,0.770507812,-0.0247802734,-29.7851562,-6.59179688,-1.89208984
81,405008,705008,81,-5149,6237,-137,-484,-124,-8,-0.628540039,0.761352539,-0.0167236328,-29.5410156,-7.56835938,-0.48828125
82,410000,710000,82,-5204,6169,-87,-482,-135,20,-0.635253906,0.753051758,-0.0106201172,-29.4189453,-8.23974609,1.22070312
83,415008,715008,83,-5261,6138,-73,-474,-146,35,-0.642211914,0.749267578,-0.00891113281,-28.9306641,-8.91113281,2.13623047
84,420000,720000,84,-5300,6112,-76,-457,-171,49,-0.646972656,0.74609375,-0.00927734375,-27.8930664,-10.4370117,2.99072266
85,425008,725008,85,-5315,6053,-62,-438,-203,68,-0.648803711,0.738891602,-0.00756835938,-26.7333984,-12.3901367,4.15039062
86,430000,730000,86,-5343,5960,-61,-419,-236,90,-0.65222168,0.727539062,-0.00744628906,-25.5737305,-14.4042969,5.49316406
87,435008,735008,87,-5370,5866,-68,-396,-273,112,-0.655517578,0.716064453,-0.00830078125,-24.1699219,-16.6625977,6.8359375
88,440000,740000,88,-5431,5821,-79,-368,-320,123,-0.662963867,0.710571289,-0.00964355469,-22.4609375,-19.53125,7.50732422
89,445008,745008,89,-5511,5810,-94,-331,-365,122,-0.672729492,0.709228516,-0.0114746094,-20.2026367,-22.277832,7.44628906
90,450000,750000,90,-5632,5844,-68,-279,-399,115,-0.6875,0.713378906,-0.00830078125,-17.0288086,-24.3530273,7.01904297
91,455008,755008,91,-5770,5932,-5,-224,-435,98,-0.704345703,0.724121094,-0.000610351562,-13.671875,-26.550293,5.98144531
92,460000,760000,92,-5863,5955,72,-174,-477,78,-0.715698242,0.726928711,0.0087890625,-10.6201172,-29.1137695,4.76074219
93,465008,765008,93,-5835,5856,192,-120,-512,60,-0.712280273,0.71484375,0.0234375,-7.32421875,-31.25,3.66210938
94,470000,770000,94,-5697,5694,367,-60,-543,48,-0.69543457,0.695068359,0.0447998047,-3.66210938,-33.1420898,2.9296875
95,475008,775008,95,-5481,5494,582,7,-571,29,-0.669067383,0.670654297,0.0710449219,0.427246094,-34.8510742,1.77001953
96,480000,780000,96,-5210,5327,820,66,-590,7,-0.635986328,0.650268555,0.100097656,4.02832031,-36.0107422,0.427246094
97,485008,785008,97,-5017,5280,1058,107,-590,-13,-0.612426758,0.64453125,0.129150391,6.53076172,-36.0107422,-0.793457031
98,490000,790000,98,-4945,5302,1261,116,-571,-31,-0.603637695,0.647216797,0.153930664,7.08007812,-34.8510742,-1.89208984
99,495008,795008,99,-4911,5262,1341,108,-552,-48,-0.599487305,0.642333984,0.163696289,6.59179688,-33.6914062,-2.9296875
100,500000,800000,100,-4865,5233,1339,100,-555,-66,-0.59387207,0.638793945,0.163452148,6.10351562,-33.8745117,-4.02832031
101,505008,805008,101,-4861,5275,1315,89,-583,-77,-0.593383789,0.643920898,0.160522461,5.43212891,-35.5834961,-4.69970703
102,510000,810000,102,-4947,5364,1273,65,-621,-86,-0.603881836,0.654785156,0.155395508,3.96728516,-37.902832,-5.24902344
103,515008,815008,103,-5122,5491,1220,26,-657,-95,-0.625244141,0.670288086,0.148925781,1.58691406,-40.1000977,-5.79833984
104,520000,820000,104,-5317,5581,1139,-25,-699,-103,-0.649047852,0.681274414,0.139038086,-1.52587891,-42.6635742,-6.28662109
105,525008,825008,105,-5501,5625,1027,-70,-751,-111,-0.671508789,0.686645508,0.125366211,-4.27246094,-45.8374023,-6.77490234
106,530000,830000,106,-5713,5659,967,-94,-809,-120,-0.697387695,0.690795898,0.118041992,-5.73730469,-49.3774414,-7.32421875
107,535008,835008,107,-5896,5685,1012,-112,-860,-137,-0.719726562,0.693969727,0.123535156,-6.8359375,-52.4902344,-8.36181641
108,540000,840000,108,-5996,5694,1074,-136,-912,-163,-0.731933594,0.695068359,0.131103516,-8.30078125,-55.6640625,-9.94873047
109,545008,845008,109,-5999,5692,1133,-158,-966,-195,-0.732299805,0.694824219,0.138305664,-9.64355469,-58.9599609,-11.9018555
110,550000,850000,110,-5965,5713,1217,-172,-1007,-229,-0.728149414,0.697387695,0.14855957,-10.4980469,-61.4624023,-13.9770508
111,555008,855008,111,-6038,5798,1293,-182,-1025,-267,-0.737060547,0.707763672,0.157836914,-11.1083984,-62.5610352,-16.2963867
112,560000,860000,112,-6173,5887,1311,-187,-1019,-315,-0.753540039,0.71862793,0.16003418,-11.4135742,-62.1948242,-19.2260742
113,565008,865008,113,-6055,5735,1327,-186,-1010,-364,-0.739135742,0.700073242,0.161987305,-11.3525391,-61.6455078,-22.2167969
114,570000,870000,114,-5387,5201,1397,-184,-1038,-407,-0.657592773,0.634887695,0.170532227,-11.2304688,-63.3544922,-24.8413086
115,575008,875008,115,-4711,4852,1472,-169,-1079,-442,-0.575073242,0.592285156,0.1796875,-10.3149414,-65.8569336,-26.9775391
116,580000,880000,116,-4609,5021,1563,-157,-1059,-453,-0.56262207,0.612915039,0.190795898,-9.58251953,-64.6362305,-27.6489258
117,585008,885008,117,-5254,5580,1654,-189,-963,-469,-0.641357422,0.681152344,0.201904297,-11.5356445,-58.7768555,-28.6254883
118,590000,890000,118,-6248,6148,1611,-267,-870,-528,-0.762695312,0.750488281,0.196655273,-16.2963867,-53.1005859,-32.2265625
119,595008,895008,119,-6747,6205,1418,-351,-866,-602,-0.823608398,0.757446289,0.173095703,-21.4233398,-52.8564453,-36.7431641
120,600000,900000,120,-6719,5930,1090,-385,-942,-659,-0.82019043,0.723876953,0.133056641,-23.4985352,-57.4951172,-40.222168
121,605008,905008,121,-6433,5614,819,-342,-1041,-703,-0.78527832,0.685302734,0.0999755859,-20.8740234,-63.5375977,-42.9077148
122,610000,910000,122,-5866,5287,780,-279,-1135,-738,-0.716064453,0.645385742,0.0952148438,-17.0288086,-69.2749023,-45.0439453
123,615008,915008,123,-5343,5091,766,-247,-1204,-753,-0.65222168,0.621459961,0.0935058594,-15.0756836,-73.4863281,-45.9594727
124,620000,920000,124,-5081,5037,521,-195,-1235,-747,-0.620239258,0.614868164,0.0635986328,-11.9018555,-75.378418,-45.5932617
125,625008,925008,125,-5245,5474,200,-86,-1251,-743,-0.640258789,0.668212891,0.0244140625,-5.24902344,-76.3549805,-45.3491211
126,630000,930000,126,-5759,6288,133,5,-1264,-756,-0.70300293,0.767578125,0.0162353516,0.305175781,-77.1484375,-46.1425781
127,635008,935008,127,-6056,6765,208,28,-1270,-755,-0.739257812,0.825805664,0.025390625,1.70898438,-77.5146484,-46.081543
128,640000,940000,128,-6069,7050,328,11,-1279,-730,-0.740844727,0.860595703,0.0400390625,0.671386719,-78.0639648,-44.5556641
129,645008,945008,129,-6050,7423,607,-49,-1278,-699,-0.738525391,0.90612793,0.0740966797,-2.99072266,-78.0029297,-42.6635742
130,650000,950000,130,-6097,7688,932,-155,-1226,-678,-0.744262695,0.938476562,0.113769531,-9.46044922,-74.8291016,-41.3818359
131,655008,955008,131,-5525,7014,974,-251,-1170,-639,-0.674438477,0.856201172,0.118896484,-15.3198242,-71.4111328,-39.0014648
132,660000,960000,132,-5265,6986,935,-245,-1131,-599,-0.642700195,0.852783203,0.114135742,-14.9536133,-69.0307617,-36.5600586
133,665008,965008,133,-5929,7982,1048,-263,-1052,-620,-0.723754883,0.974365234,0.127929688,-16.0522461,-64.2089844,-37.8417969
134,670000,970000,134,-6584,8337,872,-393,-932,-669,-0.803710938,1.0177002,0.106445312,-23.9868164,-56.8847656,-40.8325195
135,675008,975008,135,-6917,8215,441,-515,-865,-712,-0.844360352,1.00280762,0.0538330078,-31.4331055,-52.7954102,-43.4570312
136,680000,980000,136,-6709,7678,159,-578,-905,-734,-0.818969727,0.937255859,0.0194091797,-35.2783203,-55.2368164,-44.7998047
137,685008,985008,137,-6077,6855,184,-589,-983,-739,-0.741821289,0.836791992,0.0224609375,-35.949707,-59.9975586,-45.1049805
138,690000,990000,138,-5337,6077,444,-539,-1031,-740,-0.651489258,0.741821289,0.0541992188,-32.8979492,-62.9272461,-45.1660156
139,695008,995008,139,-5280,6105,807,-459,-1001,-731,-0.64453125,0.745239258,0.0985107422,-28.0151367,-61.0961914,-44.6166992
140,700000,1000000,140,-5848,6551,1151,-436,-902,-729,-0.713867188,0.799682617,0.14050293,-26.6113281,-55.0537109,-44.4946289
141,705008,1005008,141,-6374,6602,1338,-467,-783,-741,-0.778076172,0.805908203,0.163330078,-28.503418,-47.7905273,-45.2270508
142,710000,1010000,142,-6665,6365,1361,-490,-685,-741,-0.813598633,0.776977539,0.166137695,-29.9072266,-41.809082,-45.2270508
143,715008,1015008,143,-6655,5966,1308,-472,-624,-732,-0.81237793,0.728271484,0.159667969,-28.8085938,-38.0859375,-44.6777344
144,720000,1020000,144,-6501,5557,1256,-423,-587,-726,-0.793579102,0.678344727,0.153320312,-25.8178711,-35.8276367,-44.3115234
145,725008,1025008,145,-6331,5210,1182,-359,-554,-722,-0.772827148,0.635986328,0.144287109,-21.9116211,-33.8134766,-44.0673828
146,730000,1030000,146,-6250,4958,1109,-281,-504,-726,-0.762939453,0.605224609,0.135375977,-17.1508789,-30.7617188,-44.3115234
147,735008,1035008,147,-6267,4750,1025,-195,-446,-742,-0.765014648,0.579833984,0.12512207,-11.9018555,-27.2216797,-45.2880859
148,740000,1040000,148,-6298,4582,887,-96,-405,-755,-0.768798828,0.559326172,0.108276367,-5.859375,-24.7192383,-46.081543
149,745008,1045008,149,-6384,4541,722,16,-399,-762,-0.779296875,0.554321289,0.0881347656,0.9765625,-24.3530273,-46.5087891
150,750000,1050000,150,-6443,4566,512,141,-453,-783,-0.786499023,0.557373047,0.0625,8.60595703,-27.6489258,-47.7905273
151,755008,1055008,151,-6305,4585,346,275,-553,-798,-0.76965332,0.559692383,0.0422363281,16.784668,-33.7524414,-48.7060547
152,760000,1060000,152,-6008,4651,393,397,-652,-785,-0.733398438,0.567749023,0.0479736328,24.230957,-39.7949219,-47.9125977
153,765008,1065008,153,-5741,4781,620,485,-713,-756,-0.700805664,0.583618164,0.0756835938,29.6020508,-43.5180664,-46.1425781
154,770000,1070000,154,-5575,4921,928,522,-742,-719,-0.680541992,0.600708008,0.11328125,31.8603516,-45.2880859,-43.8842773
155,775008,1075008,155,-5504,5054,1217,509,-750,-676,-0.671875,0.616943359,0.14855957,31.0668945,-45.7763672,-41.2597656
156,780000,1080000,156,-5489,5206,1368,477,-757,-627,-0.670043945,0.635498047,0.166992188,29.1137695,-46.2036133,-38.269043
157,785008,1085008,157,-5448,5286,1457,449,-771,-589,-0.665039062,0.645263672,0.177856445,27.4047852,-47.0581055,-35.949707
158,790000,1090000,158,-5373,5296,1517,427,-784,-550,-0.655883789,0.646484375,0.185180664,26.0620117,-47.8515625,-33.5693359
159,795008,1095008,159,-5394,5388,1516,423,-782,-490,-0.658447266,0.657714844,0.185058594,25.8178711,-47.7294922,-29.9072266
160,800000,1100000,160,-5538,5465,1554,422,-756,-446,-0.676025391,0.667114258,0.189697266,25.7568359,-46.1425781,-27.2216797
161,805008,1105008,161,-5681,5532,1592,408,-708,-435,-0.693481445,0.675292969,0.194335938,24.9023438,-43.2128906,-26.550293
162,810000,1110000,162,-5884,5739,1550,392,-650,-422,-0.718261719,0.700561523,0.189208984,23.9257812,-39.6728516,-25.7568359
163,815008,1115008,163,-6115,5989,1482,384,-581,-406,-0.746459961,0.731079102,0.180908203,23.4375,-35.4614258,-24.7802734
164,820000,1120000,164,-6287,6204,1491,372,-498,-390,-0.767456055,0.757324219,0.182006836,22.7050781,-30.3955078,-23.8037109
165,825008,1125008,165,-6399,6346,1530,347,-435,-387,-0.78112793,0.774658203,0.186767578,21.1791992,-26.550293,-23.6206055
166,830000,1130000,166,-6408,6477,1546,314,-401,-375,-0.782226562,0.790649414,0.188720703,19.1650391,-24.4750977,-22.8881836
167,835008,1135008,167,-6420,6553,1579,274,-363,-365,-0.783691406,0.799926758,0.192749023,16.7236328,-22.1557617,-22.277832
168,840000,1140000,168,-6306,6457,1616,232,-328,-414,-0.769775391,0.788208008,0.197265625,14.1601562,-20.0195312,-25.2685547
169,845008,1145008,169,-6079,6328,1588,211,-288,-474,-0.74206543,0.772460938,0.193847656,12.878418,-17.578125,-28.9306641
170,850000,1150000,170,-5837,6259,1499,217,-244,-481,-0.712524414,0.764038086,0.182983398,13.2446289,-14.8925781,-29.3579102
171,855008,1155008,171,-5674,6300,1491,231,-211,-436,-0.692626953,0.769042969,0.182006836,14.0991211,-12.878418,-26.6113281
172,860000,1160000,172,-5699,6256,1553,219,-183,-388,-0.695678711,0.763671875,0.189575195,13.3666992,-11.1694336,-23.6816406
173,865008,1165008,173,-5541,5926,1572,178,-182,-410,-0.676391602,0.723388672,0.191894531,10.8642578,-11.1083984,-25.0244141
174,870000,1170000,174,-5192,5620,1555,174,-206,-430,-0.633789062,0.686035156,0.189819336,10.6201172,-12.5732422,-26.2451172
175,875008,1175008,175,-5242,5597,1624,196,-196,-375,-0.639892578,0.683227539,0.198242188,11.9628906,-11.9628906,-22.8881836
176,880000,1180000,176,-5558,5636,1738,182,-145,-341,-0.678466797,0.687988281,0.212158203,11.1083984,-8.85009766,-20.8129883
177,885008,1185008,177,-5812,5559,1715,148,-96,-329,-0.709472656,0.678588867,0.209350586,9.03320312,-5.859375,-20.0805664
178,890000,1190000,178,-6093,5469,1649,128,-86,-320,-0.743774414,0.667602539,0.201293945,7.8125,-5.24902344,-19.53125
179,895008,1195008,179,-6229,5365,1542,157,-108,-334,-0.760375977,0.654907227,0.188232422,9.58251953,-6.59179688,-20.3857422
180,900000,1200000,180,-6250,5230,1489,239,-127,-362,-0.762939453,0.638427734,0.181762695,14.5874023,-7.75146484,-22.0947266
181,905008,1205008,181,-6299,5141,1539,313,-151,-368,-0.768920898,0.627563477,0.187866211,19.1040039,-9.21630859,-22.4609375
182,910000,1210000,182,-6376,5178,1518,350,-185,-334,-0.778320312,0.632080078,0.185302734,21.3623047,-11.2915039,-20.3857422
183,915008,1215008,183,-6531,5368,1429,385,-224,-313,-0.797241211,0.655273438,0.174438477,23.4985352,-13.671875,-19.1040039
184,920000,1220000,184,-6578,5369,1416,404,-274,-356,-0.802978516,0.655395508,0.172851562,24.6582031,-16.7236328,-21.7285156
185,925008,1225008,185,-6298,5173,1490,395,-316,-403,-0.768798828,0.631469727,0.181884766,24.1088867,-19.2871094,-24.597168
186,930000,1230000,186,-6021,5093,1542,375,-332,-376,-0.734985352,0.621704102,0.188232422,22.8881836,-20.2636719,-22.9492188
187,935008,1235008,187,-6012,5139,1547,336,-318,-334,-0.733886719,0.627319336,0.188842773,20.5078125,-19.4091797,-20.3857422
188,940000,1240000,188,-6013,5148,1468,295,-292,-338,-0.734008789,0.628417969,0.179199219,18.0053711,-17.8222656,-20.6298828
189,945008,1245008,189,-5958,5149,1372,262,-280,-366,-0.727294922,0.628540039,0.167480469,15.9912109,-17.0898438,-22.3388672
190,950000,1250000,190,-5843,5139,1297,244,-287,-397,-0.713256836,0.627319336,0.158325195,14.8925781,-17.5170898,-24.230957
191,955008,1255008,191,-5442,4951,1358,246,-284,-407,-0.664306641,0.604370117,0.165771484,15.0146484,-17.3339844,-24.8413086
192,960000,1260000,192,-5165,4950,1461,237,-251,-346,-0.630493164,0.604248047,0.178344727,14.465332,-15.3198242,-21.1181641
193,965008,1265008,193,-5248,5010,1436,234,-249,-287,-0.640625,0.611572266,0.175292969,14.2822266,-15.1977539,-17.5170898
194,970000,1270000,194,-5185,4903,1461,279,-263,-289,-0.63293457,0.598510742,0.178344727,17.0288086,-16.0522461,-17.6391602
195,975008,1275008,195,-4946,4822,1694,347,-271,-283,-0.603759766,0.588623047,0.206787109,21.1791992,-16.5405273,-17.2729492
196,980000,1280000,196,-4902,4727,1976,374,-299,-269,-0.598388672,0.577026367,0.241210938,22.8271484,-18.2495117,-16.418457
197,985008,1285008,197,-4984,4739,2096,380,-323,-257,-0.608398438,0.578491211,0.255859375,23.1933594,-19.7143555,-15.6860352
198,990000,1290000,198,-5175,4889,2093,404,-331,-237,-0.631713867,0.596801758,0.255493164,24.6582031,-20.2026367,-14.465332
199,995008,1295008,199,-5313,4937,2033,431,-331,-201,-0.64855957,0.602661133,0.248168945,26.3061523,-20.2026367,-12.2680664
200,1000000,1300000,200,-5331,4934,2022,439,-346,-148,-0.650756836,0.602294922,0.246826172,26.7944336,-21.1181641,-9.03320312
201,1005008,1305008,201,-5497,5023,1977,436,-355,-107,-0.671020508,0.61315918,0.241333008,26.6113281,-21.6674805,-6.53076172
202,1010000,1310000,202,-5750,5143,1826,428,-333,-85,-0.701904297,0.627807617,0.222900391,26.1230469,-20.324707,-5.18798828
203,1015008,1315008,203,-5896,5256,1714,412,-311,-76,-0.719726562,0.641601562,0.209228516,25.1464844,-18.9819336,-4.63867188
204,1020000,1320000,204,-5900,5307,1625,400,-298,-73,-0.720214844,0.647827148,0.198364258,24.4140625,-18.1884766,-4.45556641
205,1025008,1325008,205,-5877,5333,1549,392,-296,-55,-0.717407227,0.651000977,0.189086914,23.9257812,-18.0664062,-3.35693359
206,1030000,1330000,206,-5808,5316,1470,392,-294,-29,-0.708984375,0.648925781,0.179443359,23.9257812,-17.9443359,-1.77001953
207,1035008,1335008,207,-5679,5275,1431,407,-267,-7,-0.693237305,0.643920898,0.174682617,24.8413086,-16.2963867,-0.427246094
208,1040000,1340000,208,-5610,5249,1547,419,-234,23,-0.684814453,0.64074707,0.188842773,25.5737305,-14.2822266,1.40380859
209,1045008,1345008,209,-5645,5135,1696,411,-203,40,-0.689086914,0.626831055,0.20703125,25.0854492,-12.3901367,2.44140625
210,1050000,1350000,210,-5705,5007,1717,395,-155,41,-0.696411133,0.611206055,0.209594727,24.1088867,-9.46044922,2.50244141
211,1055008,1355008,211,-5708,4956,1698,395,-113,52,-0.696777344,0.604980469,0.207275391,24.1088867,-6.89697266,3.17382812
212,1060000,1360000,212,-5692,4988,1756,406,-97,73,-0.694824219,0.608886719,0.214355469,24.7802734,-5.92041016,4.45556641
213,1065008,1365008,213,-5729,5065,1882,393,-81,86,-0.69934082,0.618286133,0.229736328,23.9868164,-4.94384766,5.24902344
214,1070000,1370000,214,-5784,5096,1953,351,-60,83,-0.706054688,0.622070312,0.23840332,21.4233398,-3.66210938,5.06591797
215,1075008,1375008,215,-5829,5078,1898,308,-46,81,-0.711547852,0.619873047,0.231689453,18.7988281,-2.80761719,4.94384766
216,1080000,1380000,216,-5911,5073,1802,286,-35,86,-0.721557617,0.619262695,0.219970703,17.4560547,-2.13623047,5.24902344
217,1085008,1385008,217,-6035,5096,1758,277,-38,88,-0.736694336,0.622070312,0.214599609,16.9067383,-2.31933594,5.37109375
218,1090000,1390000,218,-6175,5080,1739,260,-42,83,-0.75378418,0.620117188,0.212280273,15.8691406,-2.56347656,5.06591797
219,1095008,1395008,219,-6336,5022,1637,244,-45,72,-0.7734375,0.613037109,0.199829102,14.8925781,-2.74658203,4.39453125
220,1100000,1400000,220,-6437,4986,1540,249,-58,60,-0.785766602,0.608642578,0.187988281,15.1977539,-3.54003906,3.66210938
221,1105008,1405008,221,-6440,5023,1537,267,-70,54,-0.786132812,0.61315918,0.18762207,16.2963867,-4.27246094,3.29589844
222,1110000,1410000,222,-6404,5041,1613,279,-72,47,-0.781738281,0.615356445,0.196899414,17.0288086,-4.39453125,2.86865234
223,1115008,1415008,223,-6294,5027,1751,279,-66,41,-0.768310547,0.613647461,0.213745117,17.0288086,-4.02832031,2.50244141
224,1120000,1420000,224,-6222,4995,1877,273,-49,42,-0.759521484,0.609741211,0.229125977,16.6625977,-2.99072266,2.56347656
225,1125008,1425008,225,-6160,4860,1963,273,-23,38,-0.751953125,0.593261719,0.239624023,16.6625977,-1.40380859,2.31933594
226,1130000,1430000,226,-6022,4774,2045,274,8,34,-0.735107422,0.582763672,0.249633789,16.7236328,0.48828125,2.07519531
227,1135008,1435008,227,-6004,4794,2094,274,48,43,-0.732910156,0.585205078,0.255615234,16.7236328,2.9296875,2.62451172
228,1140000,1440000,228,-6090,4789,2087,271,76,55,-0.743408203,0.584594727,0.254760742,16.5405273,4.63867188,3.35693359
229,1145008,1445008,229,-6150,4778,2102,270,88,66,-0.750732422,0.583251953,0.256591797,16.4794922,5.37109375,4.02832031
230,1150000,1450000,230,-6111,4812,2139,259,94,75,-0.74597168,0.587402344,0.261108398,15.8081055,5.73730469,4.57763672
231,1155008,1455008,231,-6146,4879,2130,229,100,89,-0.750244141,0.595581055,0.260009766,13.9770508,6.10351562,5.43212891
232,1160000,1460000,232,-6313,4985,2090,190,100,104,-0.770629883,0.608520508,0.255126953,11.5966797,6.10351562,6.34765625
233,1165008,1465008,233,-6398,5114,2033,143,93,111,-0.781005859,0.624267578,0.248168945,8.72802734,5.67626953,6.77490234
234,1170000,1470000,234,-6360,5254,1973,87,83,116,-0.776367188,0.641357422,0.240844727,5.31005859,5.06591797,7.08007812
235,1175008,1475008,235,-6277,5390,1921,32,74,119,-0.766235352,0.657958984,0.23449707,1.953125,4.51660156,7.26318359
236,1180000,1480000,236,-6199,5502,1880,-14,62,122,-0.756713867,0.671630859,0.229492188,-0.854492188,3.78417969,7.44628906
237,1185008,1485008,237,-6191,5608,1874,-51,49,117,-0.755737305,0.684570312,0.228759766,-3.11279297,2.99072266,7.14111328
238,1190000,1490000,238,-6181,5669,1925,-81,45,101,-0.754516602,0.692016602,0.234985352,-4.94384766,2.74658203,6.16455078
239,1195008,1495008,239,-6122,5663,2014,-112,58,80,-0.747314453,0.69128418,0.245849609,-6.8359375,3.54003906,4.8828125
240,1200000,1500000,240,-6061,5580,2066,-147,93,56,-0.739868164,0.681152344,0.252197266,-8.97216797,5.67626953,3.41796875
241,1205008,1505008,241,-5980,5467,2047,-177,138,40,-0.729980469,0.667358398,0.24987793,-10.8032227,8.42285156,2.44140625
242,1210000,1510000,242,-5930,5369,2011,-201,191,33,-0.723876953,0.655395508,0.245483398,-12.2680664,11.6577148,2.01416016
243,1215008,1515008,243,-5973,5305,1982,-221,249,29,-0.729125977,0.647583008,0.241943359,-13.4887695,15.1977539,1.77001953
244,1220000,1520000,244,-6019,5242,1937,-244,299,31,-0.734741211,0.639892578,0.236450195,-14.8925781,18.2495117,1.89208984
245,1225008,1525008,245,-6011,5154,1883,-271,337,36,-0.733764648,0.629150391,0.229858398,-16.5405273,20.5688477,2.19726562
246,1230000,1530000,246,-5987,5066,1809,-297,368,47,-0.730834961,0.618408203,0.220825195,-18.1274414,22.4609375,2.86865234
247,1235008,1535008,247,-5960,4999,1749,-320,394,63,-0.727539062,0.610229492,0.213500977,-19.53125,24.0478516,3.84521484
248,1240000,1540000,248,-5996,4999,1703,-346,422,78,-0.731933594,0.610229492,0.207885742,-21.1181641,25.7568359,4.76074219
249,1245008,1545008,249,-6075,5045,1640,-368,450,91,-0.741577148,0.615844727,0.200195312,-22.4609375,27.4658203,5.55419922
250,1250000,1550000,250,-6101,5095,1584,-390,468,108,-0.744750977,0.621948242,0.193359375,-23.8037109,28.5644531,6.59179688
251,1255008,1555008,251,-6117,5189,1558,-418,474,136,-0.746704102,0.633422852,0.190185547,-25.5126953,28.9306641,8.30078125
252,1260000,1560000,252,-6178,5358,1553,-452,487,160,-0.754150391,0.654052734,0.189575195,-27.5878906,29.7241211,9.765625
253,1265008,1565008,253,-6224,5485,1539,-490,509,166,-0.759765625,0.669555664,0.187866211,-29.9072266,31.0668945,10.1318359
254,1270000,1570000,254,-6220,5543,1454,-517,532,160,-0.759277344,0.676635742,0.177490234,-31.5551758,32.4707031,9.765625
255,1275008,1575008,255,-6192,5540,1368,-527,555,160,-0.755859375,0.676269531,0.166992188,-32.1655273,33.8745117,9.765625
256,1280000,1580000,256,-6108,5494,1330,-532,567,166,-0.745605469,0.670654297,0.162353516,-32.4707031,34.6069336,10.1318359
257,1285008,1585008,257,-5968,5513,1294,-528,571,179,-0.728515625,0.672973633,0.157958984,-32.2265625,34.8510742,10.925293
258,1290000,1590000,258,-5890,5611,1312,-510,578,196,-0.718994141,0.684936523,0.16015625,-31.1279297,35.2783203,11.9628906
259,1295008,1595008,259,-5861,5737,1383,-486,585,208,-0.715454102,0.700317383,0.168823242,-29.6630859,35.7055664,12.6953125
260,1300000,1600000,260,-5835,5823,1471,-458,585,226,-0.712280273,0.71081543,0.17956543,-27.9541016,35.7055664,13.7939453
261,1305008,1605008,261,-5808,5860,1529,-434,576,251,-0.708984375,0.715332031,0.186645508,-26.4892578,35.15625,15.3198242
262,1310000,1610000,262,-5779,5878,1578,-412,569,279,-0.705444336,0.717529297,0.192626953,-25.1464844,34.7290039,17.0288086
263,1315008,1615008,263,-5789,5914,1622,-390,567,309,-0.706665039,0.721923828,0.197998047,-23.8037109,34.6069336,18.8598633
264,1320000,1620000,264,-5857,5994,1590,-366,574,336,-0.71496582,0.731689453,0.194091797,-22.3388672,35.0341797,20.5078125
265,1325008,1625008,265,-5950,6070,1521,-343,585,363,-0.726318359,0.740966797,0.185668945,-20.9350586,35.7055664,22.1557617
266,1330000,1630000,266,-5988,6082,1466,-331,579,392,-0.730957031,0.742431641,0.178955078,-20.2026367,35.3393555,23.9257812
267,1335008,1635008,267,-6002,6120,1440,-337,570,428,-0.732666016,0.747070312,0.17578125,-20.5688477,34.7900391,26.1230469
268,1340000,1640000,268,-5987,6210,1384,-360,574,466,-0.730834961,0.758056641,0.168945312,-21.9726562,35.0341797,28.4423828
269,1345008,1645008,269,-5921,6304,1286,-390,583,507,-0.72277832,0.76953125,0.156982422,-23.8037109,35.5834961,30.9448242
270,1350000,1650000,270,-5872,6395,1197,-426,597,549,-0.716796875,0.780639648,0.146118164,-26.0009766,36.4379883,33.5083008
271,1355008,1655008,271,-5817,6437,1089,-471,621,580,-0.710083008,0.785766602,0.13293457,-28.7475586,37.902832,35.4003906
272,1360000,1660000,272,-5718,6415,981,-525,650,605,-0.697998047,0.783081055,0.119750977,-32.043457,39.6728516,36.9262695
273,1365008,1665008,273,-5612,6373,878,-587,680,629,-0.685058594,0.777954102,0.107177734,-35.8276367,41.5039062,38.3911133
274,1370000,1670000,274,-5580,6359,727,-637,726,662,-0.681152344,0.776245117,0.0887451172,-38.8793945,44.3115234,40.4052734
275,1375008,1675008,275,-5694,6419,570,-657,783,700,-0.695068359,0.783569336,0.0695800781,-40.1000977,47.7905273,42.7246094
276,1380000,1680000,276,-5845,6512,480,-666,821,729,-0.713500977,0.794921875,0.05859375,-40.6494141,50.1098633,44.4946289
277,1385008,1685008,277,-5938,6503,405,-668,830,767,-0.724853516,0.793823242,0.0494384766,-40.7714844,50.6591797,46.8139648
278,1390000,1690000,278,-5933,6469,349,-642,813,802,-0.724243164,0.789672852,0.0426025391,-39.1845703,49.621582,48.9501953
279,1395008,1695008,279,-5832,6433,347,-597,781,823,-0.711914062,0.78527832,0.0423583984,-36.4379883,47.668457,50.2319336
280,1400000,1700000,280,-5781,6367,407,-537,761,843,-0.705688477,0.77722168,0.0496826172,-32.7758789,46.4477539,51.4526367
281,1405008,1705008,281,-5692,6392,580,-489,749,855,-0.694824219,0.780273438,0.0708007812,-29.8461914,45.715332,52.1850586
282,1410000,1710000,282,-5595,6413,737,-463,736,847,-0.682983398,0.782836914,0.0899658203,-28.2592773,44.921875,51.6967773
283,1415008,1715008,283,-5537,6365,801,-428,718,832,-0.67590332,0.776977539,0.0977783203,-26.1230469,43.8232422,50.78125
284,1420000,1720000,284,-5482,6264,838,-376,705,818,-0.669189453,0.764648438,0.102294922,-22.9492188,43.0297852,49.9267578
285,1425008,1725008,285,-5502,6193,908,-327,705,806,-0.671630859,0.755981445,0.110839844,-19.9584961,43.0297852,49.1943359
286,1430000,1730000,286,-5542,6238,974,-319,710,794,-0.676513672,0.761474609,0.118896484,-19.4702148,43.3349609,48.4619141
287,1435008,1735008,287,-5462,6250,937,-339,708,766,-0.666748047,0.762939453,0.114379883,-20.690918,43.2128906,46.7529297
288,1440000,1740000,288,-5278,6166,823,-353,700,730,-0.644287109,0.752685547,0.100463867,-21.5454102,42.7246094,44.5556641
289,1445008,1745008,289,-5066,6002,686,-346,695,699,-0.618408203,0.732666016,0.0837402344,-21.1181641,42.4194336,42.6635742
290,1450000,1750000,290,-4912,5793,573,-317,703,678,-0.599609375,0.70715332,0.0699462891,-19.3481445,42.9077148,41.3818359
291,1455008,1755008,291,-4947,5591,484,-272,728,666,-0.603881836,0.682495117,0.0590820312,-16.6015625,44.4335938,40.6494141
292,1460000,1760000,292,-5099,5401,440,-213,743,655,-0.622436523,0.659301758,0.0537109375,-13.0004883,45.3491211,39.9780273
293,1465008,1765008,293,-5227,5257,487,-163,739,649,-0.638061523,0.641723633,0.0594482422,-9.94873047,45.1049805,39.6118164
294,1470000,1770000,294,-5278,5166,546,-133,736,636,-0.644287109,0.630615234,0.0666503906,-8.11767578,44.921875,38.8183594
295,1475008,1775008,295,-5288,5091,568,-106,753,621,-0.645507812,0.621459961,0.0693359375,-6.46972656,45.9594727,37.902832
296,1480000,1780000,296,-5275,5039,581,-69,782,610,-0.643920898,0.615112305,0.0709228516,-4.21142578,47.7294922,37.2314453
297,1485008,1785008,297,-5251,5025,635,-24,810,599,-0.640991211,0.61340332,0.0775146484,-1.46484375,49.4384766,36.5600586
298,1490000,1790000,298,-5254,5080,813,21,824,589,-0.641357422,0.620117188,0.0992431641,1.28173828,50.2929688,35.949707
299,1495008,1795008,299,-5358,5222,1053,42,837,588,-0.654052734,0.637451172,0.128540039,2.56347656,51.0864258,35.8886719
300,1500000,1800000,300,-5586,5391,1225,29,860,584,-0.681884766,0.658081055,0.149536133,1.77001953,52.4902344,35.6445312
301,1505008,1805008,301,-5813,5547,1274,-9,880,568,-0.709594727,0.677124023,0.155517578,-0.549316406,53.7109375,34.6679688
302,1510000,1810000,302,-6010,5664,1246,-60,879,541,-0.733642578,0.69140625,0.152099609,-3.66210938,53.6499023,33.0200195
303,1515008,1815008,303,-6102,5696,1189,-114,866,501,-0.744873047,0.6953125,0.145141602,-6.95800781,52.8564453,30.5786133
304,1520000,1820000,304,-5934,5656,1095,-163,844,464,-0.724365234,0.690429688,0.133666992,-9.94873047,51.5136719,28.3203125
305,1525008,1825008,305,-5637,5599,1009,-197,809,445,-0.688110352,0.68347168,0.123168945,-12.0239258,49.3774414,27.1606445
306,1530000,1830000,306,-5475,5570,974,-213,785,437,-0.668334961,0.679931641,0.118896484,-13.0004883,47.9125977,26.6723633
307,1535008,1835008,307,-5390,5530,991,-219,777,420,-0.657958984,0.675048828,0.12097168,-13.3666992,47.4243164,25.6347656
308,1540000,1840000,308,-5331,5453,1017,-222,771,404,-0.650756836,0.665649414,0.124145508,-13.5498047,47.0581055,24.6582031
309,1545008,1845008,309,-5362,5323,1025,-207,765,395,-0.654541016,0.649780273,0.12512207,-12.6342773,46.6918945,24.1088867
310,1550000,1850000,310,-5480,5153,1038,-165,759,388,-0.668945312,0.62902832,0.126708984,-10.0708008,46.3256836,23.6816406
311,1555008,1855008,311,-5663,5028,1096,-108,747,377,-0.69128418,0.613769531,0.133789062,-6.59179688,45.5932617,23.0102539
312,1560000,1860000,312,-5802,4928,1223,-51,721,364,-0.708251953,0.6015625,0.149291992,-3.11279297,44.0063477,22.2167969
313,1565008,1865008,313,-5918,4865,1400,-12,696,356,-0.722412109,0.59387207,0.170898438,-0.732421875,42.4804688,21.7285156
314,1570000,1870000,314,-6028,4891,1527,8,690,346,-0.735839844,0.597045898,0.186401367,0.48828125,42.1142578,21.1181641
315,1575008,1875008,315,-6102,5002,1623,19,694,335,-0.744873047,0.610595703,0.198120117,1.15966797,42.3583984,20.4467773
316,1580000,1880000,316,-6143,5215,1769,-3,702,324,-0.74987793,0.63659668,0.215942383,-0.183105469,42.8466797,19.7753906
317,1585008,1885008,317,-6102,5490,1826,-70,720,312,-0.744873047,0.670166016,0.222900391,-4.27246094,43.9453125,19.0429688
318,1590000,1890000,318,-6004,5780,1726,-151,743,304,-0.732910156,0.705566406,0.210693359,-9.21630859,45.3491211,18.5546875
319,1595008,1895008,319,-5873,6032,1488,-216,762,305,-0.716918945,0.736328125,0.181640625,-13.1835938,46.5087891,18.6157227
320,1600000,1900000,320,-5717,6319,1319,-254,780,311,-0.697875977,0.771362305,0.161010742,-15.5029297,47.6074219,18.9819336
321,1605008,1905008,321,-5540,6658,1282,-303,809,330,-0.676269531,0.812744141,0.156494141,-18.4936523,49.3774414,20.1416016
322,1610000,1910000,322,-5359,6928,1208,-383,842,362,-0.654174805,0.845703125,0.147460938,-23.3764648,51.3916016,22.0947266
323,1615008,1915008,323,-5251,7115,1078,-469,868,399,-0.640991211,0.868530273,0.131591797,-28.6254883,52.9785156,24.3530273
324,1620000,1920000,324,-5230,7199,863,-535,889,437,-0.638427734,0.87878418,0.10534668,-32.6538086,54.2602539,26.6723633
325,1625008,1925008,325,-5259,7223,668,-561,892,466,-0.641967773,0.881713867,0.0815429688,-34.2407227,54.4433594,28.4423828
326,1630000,1930000,326,-5326,7262,583,-556,876,499,-0.650146484,0.886474609,0.0711669922,-33.9355469,53.4667969,30.456543
327,1635008,1935008,327,-5468,7231,548,-544,860,540,-0.667480469,0.88269043,0.0668945312,-33.203125,52.4902344,32.9589844
328,1640000,1940000,328,-5690,7073,477,-519,851,556,-0.694580078,0.86340332,0.0582275391,-31.6772461,51.940918,33.9355469
329,1645008,1945008,329,-5833,6846,420,-469,815,537,-0.712036133,0.835693359,0.0512695312,-28.6254883,49.7436523,32.7758789
330,1650000,1950000,330,-5959,6596,487,-397,758,513,-0.727416992,0.805175781,0.0594482422,-24.230957,46.2646484,31.3110352
331,1655008,1955008,331,-6146,6314,623,-326,715,479,-0.750244141,0.770751953,0.0760498047,-19.8974609,43.6401367,29.2358398
332,1660000,1960000,332,-6192,6019,755,-275,673,422,-0.755859375,0.734741211,0.0921630859,-16.784668,41.0766602,25.7568359
333,1665008,1965008,333,-6113,5741,839,-242,629,362,-0.74621582,0.700805664,0.102416992,-14.7705078,38.3911133,22.0947266
334,1670000,1970000,334,-6005,5498,868,-205,602,301,-0.733032227,0.671142578,0.105957031,-12.512207,36.7431641,18.371582
335,1675008,1975008,335,-5872,5324,878,-159,603,234,-0.716796875,0.649902344,0.107177734,-9.70458984,36.8041992,14.2822266
336,1680000,1980000,336,-5699,5213,862,-121,618,177,-0.695678711,0.636352539,0.105224609,-7.38525391,37.7197266,10.8032227
337,1685008,1985008,337,-5554,5214,811,-94,631,134,-0.677978516,0.636474609,0.0989990234,-5.73730469,38.5131836,8.17871094
338,1690000,1990000,338,-5443,5316,732,-75,646,104,-0.664428711,0.648925781,0.0893554688,-4.57763672,39.4287109,6.34765625
339,1695008,1995008,339,-5358,5444,666,-53,671,87,-0.654052734,0.664550781,0.0812988281,-3.23486328,40.9545898,5.31005859
340,1700000,2000000,340,-5358,5568,621,-28,715,84,-0.654052734,0.6796875,0.0758056641,-1.70898438,43.6401367,5.12695312
341,1705008,2005008,341,-5403,5656,582,-2,764,89,-0.659545898,0.690429688,0.0710449219,-0.122070312,46.6308594,5.43212891
342,1710000,2010000,342,-5499,5716,575,18,791,103,-0.671264648,0.697753906,0.0701904297,1.09863281,48.2788086,6.28662109
343,1715008,2015008,343,-5636,5752,616,26,797,120,-0.687988281,0.702148438,0.0751953125,1.58691406,48.6450195,7.32421875
344,1720000,2020000,344,-5773,5753,667,22,780,134,-0.704711914,0.702270508,0.0814208984,1.34277344,47.6074219,8.17871094
345,1725008,2025008,345,-5875,5710,670,23,744,151,-0.717163086,0.697021484,0.0817871094,1.40380859,45.4101562,9.21630859
346,1730000,2030000,346,-5947,5652,684,39,704,168,-0.725952148,0.689941406,0.0834960938,2.38037109,42.96875,10.2539062
347,1735008,2035008,347,-5998,5613,768,54,648,173,-0.732177734,0.685180664,0.09375,3.29589844,39.5507812,10.559082
348,1740000,2040000,348,-6013,5569,873,64,576,162,-0.734008789,0.67980957,0.106567383,3.90625,35.15625,9.88769531
349,1745008,2045008,349,-6001,5506,966,76,510,138,-0.732543945,0.672119141,0.117919922,4.63867188,31.1279297,8.42285156
350,1750000,2050000,350,-5952,5474,1064,90,449,109,-0.7265625,0.668212891,0.129882812,5.49316406,27.4047852,6.65283203
351,1755008,2055008,351,-5858,5483,1170,95,375,80,-0.715087891,0.669311523,0.142822266,5.79833984,22.8881836,4.8828125
352,1760000,2060000,352,-5750,5550,1266,89,300,52,-0.701904297,0.677490234,0.154541016,5.43212891,18.3105469,3.17382812
353,1765008,2065008,353,-5612,5699,1323,79,241,24,-0.685058594,0.695678711,0.161499023,4.82177734,14.7094727,1.46484375
354,1770000,2070000,354,-5413,5854,1316,70,204,4,-0.660766602,0.714599609,0.160644531,4.27246094,12.4511719,0.244140625
355,1775008,2075008,355,-5192,6038,1271,69,195,-3,-0.633789062,0.737060547,0.155151367,4.21142578,11.9018555,-0.183105469
356,1780000,2080000,356,-5013,6243,1208,72,212,-1,-0.611938477,0.762084961,0.147460938,4.39453125,12.9394531,-0.0610351562
357,1785008,2085008,357,-4932,6441,1104,72,239,4,-0.602050781,0.786254883,0.134765625,4.39453125,14.5874023,0.244140625
358,1790000,2090000,358,-4917,6625,934,63,263,5,-0.600219727,0.80871582,0.114013672,3.84521484,16.0522461,0.305175781
359,1795008,2095008,359,-4915,6752,709,50,276,7,-0.599975586,0.82421875,0.0865478516,3.05175781,16.8457031,0.427246094
360,1800000,2100000,360,-4932,6810,462,38,276,11,-0.602050781,0.831298828,0.0563964844,2.31933594,16.8457031,0.671386719
361,1805008,2105008,361,-4953,6838,238,33,258,18,-0.604614258,0.834716797,0.0290527344,2.01416016,15.7470703,1.09863281
362,1810000,2110000,362,-4958,6853,60,30,229,30,-0.605224609,0.836547852,0.00732421875,1.83105469,13.9770508,1.83105469
363,1815008,2115008,363,-4950,6809,-71,24,202,44,-0.604248047,0.831176758,-0.00866699219,1.46484375,12.3291016,2.68554688
364,1820000,2120000,364,-4969,6701,-139,11,176,54,-0.606567383,0.817993164,-0.0169677734,0.671386719,10.7421875,3.29589844
365,1825008,2125008,365,-5154,6447,-200,-6,155,48,-0.629150391,0.786987305,-0.0244140625,-0.366210938,9.46044922,2.9296875
366,1830000,2130000,366,-5431,6117,-243,-11,136,20,-0.662963867,0.746704102,-0.0296630859,-0.671386719,8.30078125,1.22070312
367,1835008,2135008,367,-5492,5932,-243,-16,115,-12,-0.670410156,0.724121094,-0.0296630859,-0.9765625,7.01904297,-0.732421875
368,1840000,2140000,368,-5362,5858,-223,-28,93,-37,-0.654541016,0.715087891,-0.0272216797,-1.70898438,5.67626953,-2.25830078
369,1845008,2145008,369,-5605,5328,-1587,-88,-138,-27,-0.684204102,0.650390625,-0.193725586,-5.37109375,-8.42285156,-1.64794922
370,1850000,2150000,370,-6243,3237,-5436,-274,-1479,265,-0.762084961,0.395141602,-0.663574219,-16.7236328,-90.2709961,16.1743164
371,1855008,2155008,371,-6889,2522,-5681,-51,-2794,628,-0.840942383,0.307861328,-0.693481445,-3.11279297,-170.532227,38.3300781
372,1860000,2160000,372,-7021,5528,-603,780,-1973,445,-0.857055664,0.674804688,-0.0736083984,47.6074219,-120.422363,27.1606445
373,1865008,2165008,373,-5824,7688,2859,1145,-452,-17,-0.7109375,0.938476562,0.348999023,69.8852539,-27.5878906,-1.03759766
374,1870000,2170000,374,-4634,6854,1081,935,-74,-134,-0.565673828,0.836669922,0.131958008,57.0678711,-4.51660156,-8.17871094
375,1875008,2175008,375,-4648,4359,-8932,2102,-149,-40,-0.567382812,0.532104492,-1.09033203,128.295898,-9.09423828,-2.44140625
376,1880000,2180000,376,-5053,5263,-8989,3937,115,73,-0.616821289,0.642456055,-1.09729004,240.29541,7.01904297,4.45556641
377,1885008,2185008,377,-4653,7393,2599,3688,336,79,-0.567993164,0.90246582,0.317260742,225.097656,20.5078125,4.82177734
378,1890000,2190000,378,-3743,6694,4608,2516,75,43,-0.45690918,0.817138672,0.5625,153.564453,4.57763672,2.62451172
379,1895008,2195008,379,-3633,6642,861,2266,-331,162,-0.443481445,0.810791016,0.105102539,138.305664,-20.2026367,9.88769531
380,1900000,2200000,380,-4271,6964,-595,2422,-335,238,-0.521362305,0.850097656,-0.0726318359,147.827148,-20.4467773,14.5263672
381,1905008,2205008,381,-4898,7133,-34,2415,-36,208,-0.597900391,0.870727539,-0.00415039062,147.399902,-2.19726562,12.6953125
382,1910000,2210000,382,-4814,7283,-148,2303,210,135,-0.587646484,0.889038086,-0.0180664062,140.563965,12.8173828,8.23974609
383,1915008,2215008,383,-4284,7293,-752,2201,286,82,-0.522949219,0.890258789,-0.091796875,134.338379,17.4560547,5.00488281
384,1920000,2220000,384,-4060,7275,-811,2103,238,80,-0.495605469,0.888061523,-0.0989990234,128.356934,14.5263672,4.8828125
385,1925008,2225008,385,-4271,7476,-330,1959,155,81,-0.521362305,0.912597656,-0.0402832031,119.567871,9.46044922,4.94384766
386,1930000,2230000,386,-4610,7731,119,1769,67,64,-0.562744141,0.943725586,0.0145263672,107.971191,4.08935547,3.90625
387,1935008,2235008,387,-4978,7863,873,1588,-40,69,-0.607666016,0.959838867,0.106567383,96.9238281,-2.44140625,4.21142578
388,1940000,2240000,388,-5239,7888,1601,1349,-83,62,-0.639526367,0.962890625,0.19543457,82.3364258,-5.06591797,3.78417969
389,1945008,2245008,389,-5224,7796,1773,1042,-55,30,-0.637695312,0.951660156,0.216430664,63.5986328,-3.35693359,1.83105469
390,1950000,2250000,390,-5123,7612,1727,758,-33,5,-0.625366211,0.929199219,0.21081543,46.2646484,-2.01416016,0.305175781
391,1955008,2255008,391,-5080,7388,1558,499,-33,1,-0.620117188,0.901855469,0.190185547,30.456543,-2.01416016,0.0610351562
392,1960000,2260000,392,-5100,7080,1401,233,-53,12,-0.622558594,0.864257812,0.171020508,14.2211914,-3.23486328,0.732421875
393,1965008,2265008,393,-5150,6712,1111,-15,-77,24,-0.628662109,0.819335938,0.135620117,-0.915527344,-4.69970703,1.46484375
394,1970000,2270000,394,-5206,6417,616,-201,-80,29,-0.635498047,0.783325195,0.0751953125,-12.2680664,-4.8828125,1.77001953
395,1975008,2275008,395,-5304,6235,84,-323,-60,28,-0.647460938,0.761108398,0.0102539062,-19.7143555,-3.66210938,1.70898438
396,1980000,2280000,396,-5388,6151,-288,-393,-29,24,-0.657714844,0.750854492,-0.03515625,-23.9868164,-1.77001953,1.46484375
397,1985008,2285008,397,-5463,6034,-511,-439,-7,19,-0.666870117,0.736572266,-0.0623779297,-26.7944336,-0.427246094,1.15966797
398,1990000,2290000,398,-5578,5843,-492,-482,-2,13,-0.680908203,0.713256836,-0.0600585938,-29.4189453,-0.122070312,0.793457031
399,1995008,2295008,399,-5660,5681,-306,-558,-16,4,-0.690917969,0.693481445,-0.0373535156,-34.0576172,-0.9765625,0.244140625
400,2000000,2300000,400,-5677,5604,-96,-685,-54,-9,-0.692993164,0.684082031,-0.01171875,-41.809082,-3.29589844,-0.549316406
401,2005008,2305008,401,-5744,5582,111,-846,-118,-13,-0.701171875,0.681396484,0.0135498047,-51.6357422,-7.20214844,-0.793457031
402,2010000,2310000,402,-5852,5567,278,-1027,-199,9,-0.714355469,0.67956543,0.0339355469,-62.6831055,-12.1459961,0.549316406
403,2015008,2315008,403,-5858,5484,444,-1208,-274,36,-0.715087891,0.669433594,0.0541992188,-73.7304688,-16.7236328,2.19726562
404,2020000,2320000,404,-5724,5365,651,-1372,-314,52,-0.698730469,0.654907227,0.0794677734,-83.7402344,-19.1650391,3.17382812
405,2025008,2325008,405,-5585,5259,837,-1520,-327,60,-0.681762695,0.641967773,0.102172852,-92.7734375,-19.9584961,3.66210938
406,2030000,2330000,406,-5550,5189,957,-1655,-329,58,-0.677490234,0.633422852,0.116821289,-101.013184,-20.0805664,3.54003906
407,2035008,2335008,407,-5516,5198,1002,-1784,-327,38,-0.673339844,0.634521484,0.122314453,-108.886719,-19.9584961,2.31933594
408,2040000,2340000,408,-5457,5298,1047,-1917,-323,17,-0.666137695,0.646728516,0.127807617,-117.004395,-19.7143555,1.03759766
409,2045008,2345008,409,-5324,5450,1170,-2055,-312,8,-0.649902344,0.665283203,0.142822266,-125.427246,-19.0429688,0.48828125
410,2050000,2350000,410,-5180,5566,1416,-2189,-289,-3,-0.632324219,0.679443359,0.172851562,-133.605957,-17.6391602,-0.183105469
411,2055008,2355008,411,-5041,5698,1787,-2342,-258,-11,-0.615356445,0.695556641,0.218139648,-142.944336,-15.7470703,-0.671386719
412,2060000,2360000,412,-4988,5860,2256,-2530,-208,-13,-0.608886719,0.715332031,0.275390625,-154.418945,-12.6953125,-0.793457031
413,2065008,2365008,413,-4936,6026,2627,-2740,-153,-15,-0.602539062,0.735595703,0.320678711,-167.236328,-9.33837891,-0.915527344
414,2070000,2370000,414,-4853,6264,3124,-2977,-80,-3,-0.592407227,0.764648438,0.381347656,-181.70166,-4.8828125,-0.183105469
415,2075008,2375008,415,-5050,6386,3588,-3263,18,-8,-0.616455078,0.779541016,0.437988281,-199.157715,1.09863281,-0.48828125
416,2080000,2380000,416,-5155,6445,3766,-3539,77,-47,-0.629272461,0.786743164,0.459716797,-216.003418,4.69970703,-2.86865234
417,2085008,2385008,417,-5411,6496,3641,-3736,148,-90,-0.660522461,0.79296875,0.444458008,-228.027344,9.03320312,-5.49316406
418,2090000,2390000,418,-6960,6230,2821,-3729,205,-338,-0.849609375,0.760498047,0.344360352,-227.600098,12.512207,-20.6298828
419,2095008,2395008,419,-7860,5272,1393,-3456,255,-796,-0.959472656,0.643554688,0.170043945,-210.9375,15.5639648,-48.5839844
420,2100000,2400000,420,-6511,4523,-306,-2790,360,-1242,-0.794799805,0.552124023,-0.0373535156,-170.288086,21.9726562,-75.8056641
421,2105008,2405008,421,-5113,4601,-2016,-1844,569,-1483,-0.624145508,0.561645508,-0.24609375,-112.548828,34.7290039,-90.5151367
422,2110000,2410000,422,-4001,3364,-4248,-631,771,-1454,-0.48840332,0.410644531,-0.518554688,-38.5131836,47.0581055,-88.7451172
423,2115008,2415008,423,-3675,1791,-5808,1080,824,-1221,-0.448608398,0.21862793,-0.708984375,65.9179688,50.2929688,-74.5239258
424,2120000,2420000,424,-5155,2131,-5145,2684,746,-1021,-0.629272461,0.260131836,-0.628051758,163.818359,45.5322266,-62.3168945
425,2125008,2425008,425,-7188,3511,-3546,3773,458,-1029,-0.877441406,0.428588867,-0.432861328,230.285645,27.9541016,-62.8051758
426,2130000,2430000,426,-8371,5144,-1522,4338,-93,-1074,-1.02185059,0.627929688,-0.185791016,264.770508,-5.67626953,-65.5517578
427,2135008,2435008,427,-8380,6529,1246,3966,-696,-1067,-1.02294922,0.79699707,0.152099609,242.06543,-42.4804688,-65.1245117
428,2140000,2440000,428,-7733,6950,3046,2627,-1038,-1039,-0.943969727,0.848388672,0.371826172,160.339355,-63.3544922,-63.4155273
429,2145008,2445008,429,-6747,6314,2146,1266,-1086,-1025,-0.823608398,0.770751953,0.261962891,77.2705078,-66.2841797,-62.5610352
430,2150000,2450000,430,-5961,5555,114,751,-1004,-995,-0.727661133,0.678100586,0.0139160156,45.8374023,-61.2792969,-60.7299805
431,2155008,2455008,431,-5741,5358,-661,851,-969,-946,-0.700805664,0.654052734,-0.0806884766,51.940918,-59.1430664,-57.7392578
432,2160000,2460000,432,-5740,5554,-404,948,-1000,-906,-0.700683594,0.677978516,-0.0493164062,57.8613281,-61.0351562,-55.2978516
433,2165008,2465008,433,-5674,5764,-136,872,-1024,-861,-0.692626953,0.703613281,-0.0166015625,53.2226562,-62.5,-52.5512695
434,2170000,2470000,434,-5543,5893,-86,730,-1003,-811,-0.676635742,0.719360352,-0.0104980469,44.5556641,-61.2182617,-49.4995117
435,2175008,2475008,435,-5413,5979,-138,600,-937,-775,-0.660766602,0.729858398,-0.0168457031,36.6210938,-57.1899414,-47.3022461
436,2180000,2480000,436,-5362,6063,-193,494,-850,-766,-0.654541016,0.740112305,-0.0235595703,30.1513672,-51.8798828,-46.7529297
437,2185008,2485008,437,-5425,6219,-215,413,-759,-781,-0.662231445,0.759155273,-0.0262451172,25.2075195,-46.3256836,-47.668457
438,2190000,2490000,438,-5580,6384,-254,346,-687,-813,-0.681152344,0.779296875,-0.0310058594,21.1181641,-41.9311523,-49.621582
439,2195008,2495008,439,-5714,6403,-344,299,-654,-844,-0.697509766,0.781616211,-0.0419921875,18.2495117,-39.9169922,-51.5136719
440,2200000,2500000,440,-5835,6338,-394,305,-640,-870,-0.712280273,0.773681641,-0.0480957031,18.6157227,-39.0625,-53.1005859
441,2205008,2505008,441,-5981,6307,-345,372,-634,-894,-0.730102539,0.769897461,-0.0421142578,22.7050781,-38.6962891,-54.5654297
442,2210000,2510000,442,-6103,6331,-224,477,-648,-909,-0.744995117,0.772827148,-0.02734375,29.1137695,-39.5507812,-55.480957
443,2215008,2515008,443,-6178,6447,-60,575,-680,-917,-0.754150391,0.786987305,-0.00732421875,35.0952148,-41.5039062,-55.9692383
444,2220000,2520000,444,-6191,6510,82,649,-720,-923,-0.755737305,0.794677734,0.0100097656,39.6118164,-43.9453125,-56.3354492
445,2225008,2525008,445,-6234,6500,147,716,-765,-932,-0.760986328,0.793457031,0.0179443359,43.7011719,-46.6918945,-56.8847656
446,2230000,2530000,446,-6160,6582,187,793,-812,-962,-0.751953125,0.803466797,0.0228271484,48.4008789,-49.5605469,-58.7158203
447,2235008,2535008,447,-5916,6672,268,857,-841,-988,-0.722167969,0.814453125,0.0327148438,52.3071289,-51.3305664,-60.3027344
448,2240000,2540000,448,-5753,6689,343,887,-834,-984,-0.702270508,0.81652832,0.0418701172,54.1381836,-50.9033203,-60.0585938
449,2245008,2545008,449,-5760,6714,401,883,-793,-967,-0.703125,0.819580078,0.0489501953,53.894043,-48.4008789,-59.0209961
450,2250000,2550000,450,-5817,6680,411,840,-736,-954,-0.710083008,0.815429688,0.0501708984,51.2695312,-44.921875,-58.2275391
451,2255008,2555008,451,-5829,6511,307,777,-680,-936,-0.711547852,0.794799805,0.0374755859,47.4243164,-41.5039062,-57.1289062
452,2260000,2560000,452,-5809,6317,33,736,-642,-912,-0.709106445,0.771118164,0.00402832031,44.921875,-39.1845703,-55.6640625
453,2265008,2565008,453,-5747,6154,-257,734,-616,-888,-0.701538086,0.751220703,-0.0313720703,44.7998047,-37.5976562,-54.1992188
454,2270000,2570000,454,-5694,6037,-414,739,-575,-856,-0.695068359,0.736938477,-0.0505371094,45.1049805,-35.0952148,-52.2460938
455,2275008,2575008,455,-5791,5980,-509,723,-524,-806,-0.70690918,0.729980469,-0.0621337891,44.128418,-31.9824219,-49.1943359
456,2280000,2580000,456,-5999,5987,-556,686,-487,-745,-0.732299805,0.730834961,-0.0678710938,41.8701172,-29.7241211,-45.4711914
457,2285008,2585008,457,-6234,6097,-515,626,-466,-682,-0.760986328,0.744262695,-0.0628662109,38.2080078,-28.4423828,-41.6259766
458,2290000,2590000,458,-6415,6214,-395,532,-461,-613,-0.783081055,0.758544922,-0.0482177734,32.4707031,-28.137207,-37.4145508
459,2295008,2595008,459,-6479,6202,-288,423,-476,-551,-0.790893555,0.757080078,-0.03515625,25.8178711,-29.0527344,-33.6303711
460,2300000,2600000,460,-6591,6045,-289,343,-500,-493,-0.80456543,0.737915039,-0.0352783203,20.9350586,-30.5175781,-30.090332
461,2305008,2605008,461,-6642,5889,-334,320,-538,-437,-0.810791016,0.71887207,-0.0407714844,19.53125,-32.8369141,-26.6723633
462,2310000,2610000,462,-6610,5812,-289,335,-581,-400,-0.806884766,0.709472656,-0.0352783203,20.4467773,-35.4614258,-24.4140625
463,2315008,2615008,463,-6567,5785,-182,362,-608,-382,-0.801635742,0.706176758,-0.0222167969,22.0947266,-37.109375,-23.3154297
464,2320000,2620000,464,-6543,5775,-13,391,-626,-368,-0.798706055,0.704956055,-0.00158691406,23.8647461,-38.2080078,-22.4609375
465,2325008,2625008,465,-6566,5756,214,409,-647,-358,-0.801513672,0.702636719,0.0261230469,24.9633789,-39.4897461,-21.8505859
466,2330000,2630000,466,-6498,5756,461,400,-661,-367,-0.793212891,0.702636719,0.0562744141,24.4140625,-40.3442383,-22.3999023
467,2335008,2635008,467,-6503,5658,624,394,-663,-385,-0.793823242,0.690673828,0.076171875,24.0478516,-40.4663086,-23.4985352
468,2340000,2640000,468,-6616,5493,683,414,-674,-392,-0.807617188,0.670532227,0.0833740234,25.2685547,-41.1376953,-23.9257812
469,2345008,2645008,469,-6620,5413,730,457,-705,-396,-0.808105469,0.660766602,0.0891113281,27.8930664,-43.0297852,-24.1699219
470,2350000,2650000,470,-6568,5408,811,512,-741,-387,-0.801757812,0.66015625,0.0989990234,31.25,-45.2270508,-23.6206055
471,2355008,2655008,471,-6620,5475,897,543,-770,-374,-0.808105469,0.668334961,0.10949707,33.1420898,-46.9970703,-22.8271484
472,2360000,2660000,472,-6531,5428,908,536,-796,-387,-0.797241211,0.662597656,0.110839844,32.7148438,-48.5839844,-23.6206055
473,2365008,2665008,473,-6464,5259,785,529,-807,-380,-0.7890625,0.641967773,0.0958251953,32.2875977,-49.2553711,-23.1933594
474,2370000,2670000,474,-6639,5147,697,554,-819,-352,-0.810424805,0.628295898,0.0850830078,33.8134766,-49.987793,-21.484375
475,2375008,2675008,475,-6645,5114,715,556,-842,-347,-0.811157227,0.624267578,0.0872802734,33.9355469,-51.3916016,-21.1791992
476,2380000,2680000,476,-6478,5089,725,509,-843,-333,-0.790771484,0.62121582,0.0885009766,31.0668945,-51.4526367,-20.324707
477,2385008,2685008,477,-6408,4967,652,435,-826,-309,-0.782226562,0.606323242,0.0795898438,26.550293,-50.4150391,-18.8598633
478,2390000,2690000,478,-6457,4819,457,381,-800,-271,-0.788208008,0.588256836,0.0557861328,23.2543945,-48.828125,-16.5405273
479,2395008,2695008,479,-6487,4779,308,360,-771,-232,-0.791870117,0.583374023,0.0375976562,21.9726562,-47.0581055,-14.1601562
480,2400000,2700000,480,-6287,4841,225,332,-751,-217,-0.767456055,0.590942383,0.0274658203,20.2636719,-45.8374023,-13.2446289
481,2405008,2705008,481,-6141,4890,145,321,-730,-183,-0.749633789,0.596923828,0.0177001953,19.5922852,-44.5556641,-11.1694336
482,2410000,2710000,482,-6226,4894,248,332,-721,-148,-0.760009766,0.597412109,0.0302734375,20.2636719,-44.0063477,-9.03320312
483,2415008,2715008,483,-6270,4879,440,331,-727,-147,-0.765380859,0.595581055,0.0537109375,20.2026367,-44.3725586,-8.97216797
484,2420000,2720000,484,-6281,4849,545,321,-732,-152,-0.766723633,0.591918945,0.0665283203,19.5922852,-44.6777344,-9.27734375
485,2425008,2725008,485,-6375,4879,595,313,-735,-154,-0.778198242,0.595581055,0.0726318359,19.1040039,-44.8608398,-9.39941406
486,2430000,2730000,486,-6447,4977,629,331,-742,-156,-0.786987305,0.607543945,0.0767822266,20.2026367,-45.2880859,-9.52148438
487,2435008,2735008,487,-6370,5015,715,354,-755,-169,-0.777587891,0.612182617,0.0872802734,21.6064453,-46.081543,-10.3149414
488,2440000,2740000,488,-6411,4967,812,370,-757,-176,-0.782592773,0.606323242,0.0991210938,22.5830078,-46.2036133,-10.7421875
489,2445008,2745008,489,-6509,4900,900,374,-753,-177,-0.794555664,0.598144531,0.109863281,22.8271484,-45.9594727,-10.8032227
490,2450000,2750000,490,-6491,4861,895,365,-754,-177,-0.792358398,0.593383789,0.10925293,22.277832,-46.0205078,-10.8032227
491,2455008,2755008,491,-6349,4895,894,360,-756,-180,-0.775024414,0.59753418,0.109130859,21.9726562,-46.1425781,-10.9863281
492,2460000,2760000,492,-6229,4898,928,338,-742,-173,-0.760375977,0.597900391,0.11328125,20.6298828,-45.2880859,-10.559082
493,2465008,2765008,493,-6304,4851,904,308,-722,-149,-0.76953125,0.592163086,0.110351562,18.7988281,-44.0673828,-9.09423828
494,2470000,2770000,494,-6324,4828,776,295,-721,-131,-0.771972656,0.589355469,0.0947265625,18.0053711,-44.0063477,-7.99560547
495,2475008,2775008,495,-6317,4783,682,303,-730,-118,-0.771118164,0.583862305,0.0832519531,18.4936523,-44.5556641,-7.20214844
496,2480000,2780000,496,-6365,4784,661,304,-729,-108,-0.776977539,0.583984375,0.0806884766,18.5546875,-44.4946289,-6.59179688
497,2485008,2785008,497,-6314,4843,648,303,-717,-97,-0.770751953,0.591186523,0.0791015625,18.4936523,-43.762207,-5.92041016
498,2490000,2790000,498,-6314,4925,695,304,-700,-82,-0.770751953,0.601196289,0.0848388672,18.5546875,-42.7246094,-5.00488281
499,2495008,2795008,499,-6372,4998,759,293,-688,-70,-0.777832031,0.610107422,0.0926513672,17.8833008,-41.9921875,-4.27246094
500,2500000,2800000,500,-6318,5057,804,270,-688,-64,-0.771240234,0.61730957,0.0981445312,16.4794922,-41.9921875,-3.90625
501,2505008,2805008,501,-6176,5157,824,240,-681,-54,-0.75390625,0.629516602,0.100585938,14.6484375,-41.5649414,-3.29589844
502,2510000,2810000,502,-6134,5262,842,212,-660,-44,-0.748779297,0.642333984,0.102783203,12.9394531,-40.2832031,-2.68554688
503,2515008,2815008,503,-6235,5278,821,188,-628,-44,-0.761108398,0.644287109,0.100219727,11.4746094,-38.3300781,-2.68554688
504,2520000,2820000,504,-6344,5186,753,185,-600,-51,-0.774414062,0.633056641,0.0919189453,11.2915039,-36.6210938,-3.11279297
505,2525008,2825008,505,-6426,5128,728,201,-589,-54,-0.784423828,0.625976562,0.0888671875,12.2680664,-35.949707,-3.29589844
506,2530000,2830000,506,-6528,5133,761,216,-580,-58,-0.796875,0.626586914,0.0928955078,13.1835938,-35.4003906,-3.54003906
507,2535008,2835008,507,-6567,5098,788,222,-572,-61,-0.801635742,0.622314453,0.0961914062,13.5498047,-34.9121094,-3.72314453
508,2540000,2840000,508,-6473,5073,807,219,-562,-62,-0.790161133,0.619262695,0.0985107422,13.3666992,-34.3017578,-3.78417969
509,2545008,2845008,509,-6345,5098,805,207,-531,-55,-0.774536133,0.622314453,0.0982666016,12.6342773,-32.409668,-3.35693359
510,2550000,2850000,510,-6231,5100,781,184,-478,-48,-0.760620117,0.622558594,0.0953369141,11.2304688,-29.1748047,-2.9296875
511,2555008,2855008,511,-6270,5055,724,166,-425,-31,-0.765380859,0.61706543,0.0883789062,10.1318359,-25.9399414,-1.89208984
512,2560000,2860000,512,-6369,5024,688,166,-391,-10,-0.77746582,0.61328125,0.083984375,10.1318359,-23.8647461,-0.610351562
513,2565008,2865008,513,-6347,5000,716,164,-373,-2,-0.774780273,0.610351562,0.0874023438,10.0097656,-22.7661133,-0.122070312
514,2570000,2870000,514,-6328,4978,764,164,-353,6,-0.772460938,0.607666016,0.0932617188,10.0097656,-21.5454102,0.366210938
515,2575008,2875008,515,-6275,5020,827,165,-336,4,-0.765991211,0.612792969,0.100952148,10.0708008,-20.5078125,0.244140625
516,2580000,2880000,516,-6252,5087,884,161,-321,4,-0.763183594,0.62097168,0.107910156,9.82666016,-19.5922852,0.244140625
517,2585008,2885008,517,-6318,5137,957,159,-303,13,-0.771240234,0.627075195,0.116821289,9.70458984,-18.4936523,0.793457031
518,2590000,2890000,518,-6277,5174,1019,146,-285,13,-0.766235352,0.631591797,0.124389648,8.91113281,-17.3950195,0.793457031
519,2595008,2895008,519,-6197,5214,1032,123,-256,12,-0.756469727,0.636474609,0.125976562,7.50732422,-15.625,0.732421875
520,2600000,2900000,520,-6190,5259,1032,94,-221,10,-0.755615234,0.641967773,0.125976562,5.73730469,-13.4887695,0.610351562
521,2605008,2905008,521,-6188,5261,1045,57,-186,1,-0.755371094,0.642211914,0.127563477,3.47900391,-11.3525391,0.0610351562
522,2610000,2910000,522,-6212,5205,1024,20,-151,-10,-0.758300781,0.635375977,0.125,1.22070312,-9.21630859,-0.610351562
523,2615008,2915008,523,-6256,5131,994,-3,-116,-22,-0.763671875,0.626342773,0.121337891,-0.183105469,-7.08007812,-1.34277344
524,2620000,2920000,524,-6294,5062,1009,-16,-86,-33,-0.768310547,0.617919922,0.123168945,-0.9765625,-5.24902344,-2.01416016
525,2625008,2925008,525,-6337,4992,1050,-24,-59,-45,-0.77355957,0.609375,0.128173828,-1.46484375,-3.60107422,-2.74658203
526,2630000,2930000,526,-6368,4921,1092,-30,-34,-59,-0.77734375,0.600708008,0.133300781,-1.83105469,-2.07519531,-3.60107422
527,2635008,2935008,527,-6375,4854,1107,-34,-5,-72,-0.778198242,0.592529297,0.135131836,-2.07519531,-0.305175781,-4.39453125
528,2640000,2940000,528,-6372,4831,1101,-39,25,-83,-0.777832031,0.58972168,0.134399414,-2.38037109,1.52587891,-5.06591797
529,2645008,2945008,529,-6355,4868,1089,-48,49,-92,-0.775756836,0.594238281,0.13293457,-2.9296875,2.99072266,-5.61523438
530,2650000,2950000,530,-6324,4909,1089,-62,70,-96,-0.771972656,0.599243164,0.13293457,-3.78417969,4.27246094,-5.859375
531,2655008,2955008,531,-6296,4939,1108,-79,91,-97,-0.768554688,0.602905273,0.135253906,-4.82177734,5.55419922,-5.92041016
532,2660000,2960000,532,-6280,4963,1149,-97,114,-93,-0.766601562,0.605834961,0.140258789,-5.92041016,6.95800781,-5.67626953
533,2665008,2965008,533,-6276,4982,1195,-111,137,-83,-0.766113281,0.608154297,0.145874023,-6.77490234,8.36181641,-5.06591797
534,2670000,2970000,534,-6278,5006,1247,-121,156,-70,-0.766357422,0.611083984,0.15222168,-7.38525391,9.52148438,-4.27246094
535,2675008,2975008,535,-6297,5045,1307,-135,168,-56,-0.768676758,0.615844727,0.159545898,-8.23974609,10.2539062,-3.41796875
536,2680000,2980000,536,-6327,5075,1353,-152,172,-42,-0.772338867,0.619506836,0.165161133,-9.27734375,10.4980469,-2.56347656
537,2685008,2985008,537,-6354,5080,1381,-173,171,-28,-0.775634766,0.620117188,0.168579102,-10.559082,10.4370117,-1.70898438
538,2690000,2990000,538,-6382,5067,1404,-194,170,-16,-0.779052734,0.618530273,0.171386719,-11.8408203,10.3759766,-0.9765625
539,2695008,2995008,539,-6413,5041,1422,-212,173,-5,-0.782836914,0.615356445,0.173583984,-12.9394531,10.559082,-0.305175781
540,2700000,3000000,540,-6482,5035,1447,-224,185,4,-0.791259766,0.614624023,0.176635742,-13.671875,11.2915039,0.244140625
541,2705008,3005008,541,-6586,5062,1480,-240,199,9,-0.803955078,0.617919922,0.180664062,-14.6484375,12.1459961,0.549316406
542,2710000,3010000,542,-6684,5081,1503,-263,209,11,-0.815917969,0.620239258,0.18347168,-16.0522461,12.7563477,0.671386719
543,2715008,3015008,543,-6753,5082,1503,-293,214,13,-0.82434082,0.620361328,0.18347168,-17.8833008,13.0615234,0.793457031
544,2720000,3020000,544,-6790,5085,1474,-325,215,16,-0.828857422,0.620727539,0.179931641,-19.8364258,13.1225586,0.9765625
545,2725008,3025008,545,-6805,5100,1445,-355,216,19,-0.830688477,0.622558594,0.176391602,-21.6674805,13.1835938,1.15966797
546,2730000,3030000,546,-6786,5117,1441,-387,219,23,-0.828369141,0.624633789,0.17590332,-23.6206055,13.3666992,1.40380859
547,2735008,3035008,547,-6712,5134,1458,-421,225,33,-0.819335938,0.626708984,0.177978516,-25.6958008,13.7329102,2.01416016
548,2740000,3040000,548,-6605,5163,1485,-454,237,49,-0.806274414,0.630249023,0.181274414,-27.7099609,14.465332,2.99072266
549,2745008,3045008,549,-6493,5174,1528,-492,254,67,-0.792602539,0.631591797,0.186523438,-30.0292969,15.5029297,4.08935547
550,2750000,3050000,550,-6426,5140,1533,-529,275,76,-0.784423828,0.627441406,0.187133789,-32.2875977,16.784668,4.63867188
551,2755008,3055008,551,-6385,5063,1459,-553,296,72,-0.779418945,0.618041992,0.178100586,-33.7524414,18.0664062,4.39453125
552,2760000,3060000,552,-6363,4955,1346,-556,315,66,-0.776733398,0.604858398,0.164306641,-33.9355469,19.2260742,4.02832031
553,2765008,3065008,553,-6403,4881,1236,-542,326,59,-0.781616211,0.595825195,0.150878906,-33.0810547,19.8974609,3.60107422
554,2770000,3070000,554,-6481,4874,1169,-526,328,54,-0.791137695,0.594970703,0.142700195,-32.1044922,20.0195312,3.29589844
555,2775008,3075008,555,-6535,4882,1123,-516,316,52,-0.797729492,0.595947266,0.137084961,-31.4941406,19.2871094,3.17382812
556,2780000,3080000,556,-6573,4885,1086,-507,294,46,-0.802368164,0.596313477,0.132568359,-30.9448242,17.9443359,2.80761719
557,2785008,3085008,557,-6566,4870,1069,-500,276,37,-0.801513672,0.594482422,0.130493164,-30.5175781,16.8457031,2.25830078
558,2790000,3090000,558,-6500,4862,1052,-491,266,31,-0.793457031,0.593505859,0.128417969,-29.9682617,16.2353516,1.89208984
559,2795008,3095008,559,-6445,4897,1061,-478,269,30,-0.786743164,0.59777832,0.129516602,-29.1748047,16.418457,1.83105469
560,2800000,3100000,560,-6385,4915,1094,-472,283,31,-0.779418945,0.599975586,0.133544922,-28.8085938,17.2729492,1.89208984
561,2805008,3105008,561,-6362,4900,1081,-473,312,40,-0.776611328,0.598144531,0.131958008,-28.8696289,19.0429688,2.44140625
562,2810000,3110000,562,-6383,4890,1021,-471,352,59,-0.779174805,0.596923828,0.124633789,-28.7475586,21.484375,3.60107422
563,2815008,3115008,563,-6401,4904,947,-465,391,83,-0.78137207,0.598632812,0.115600586,-28.3813477,23.8647461,5.06591797
564,2820000,3120000,564,-6396,4949,898,-458,426,111,-0.780761719,0.604125977,0.109619141,-27.9541016,26.0009766,6.77490234
565,2825008,3125008,565,-6358,5003,876,-452,459,153,-0.776123047,0.610717773,0.106933594,-27.5878906,28.0151367,9.33837891
566,2830000,3130000,566,-6352,5051,840,-449,484,213,-0.775390625,0.616577148,0.102539062,-27.4047852,29.5410156,13.0004883
567,2835008,3135008,567,-6233,5089,833,-453,496,263,-0.760864258,0.62121582,0.10168457,-27.6489258,30.2734375,16.0522461
568,2840000,3140000,568,-6033,5160,861,-462,513,309,-0.736450195,0.629882812,0.105102539,-28.1982422,31.3110352,18.8598633
569,2845008,3145008,569,-5970,5276,872,-465,540,366,-0.728759766,0.644042969,0.106445312,-28.3813477,32.9589844,22.3388672
570,2850000,3150000,570,-5964,5436,878,-465,560,415,-0.728027344,0.663574219,0.107177734,-28.3813477,34.1796875,25.3295898
571,2855008,3155008,571,-5915,5678,865,-475,574,457,-0.722045898,0.693115234,0.10559082,-28.9916992,35.0341797,27.8930664
572,2860000,3160000,572,-5886,5927,837,-496,587,507,-0.718505859,0.723510742,0.102172852,-30.2734375,35.8276367,30.9448242
573,2865008,3165008,573,-5844,6070,806,-527,582,559,-0.713378906,0.740966797,0.0983886719,-32.1655273,35.5224609,34.1186523
574,2870000,3170000,574,-5712,6068,744,-561,562,615,-0.697265625,0.740722656,0.0908203125,-34.2407227,34.3017578,37.5366211
575,2875008,3175008,575,-5592,6036,697,-584,543,661,-0.682617188,0.736816406,0.0850830078,-35.6445312,33.1420898,40.3442383
576,2880000,3180000,576,-5477,6029,716,-611,536,688,-0.668579102,0.735961914,0.0874023438,-37.2924805,32.7148438,41.9921875
577,2885008,3185008,577,-5517,5942,681,-637,552,707,-0.673461914,0.725341797,0.0831298828,-38.8793945,33.6914062,43.1518555
578,2890000,3190000,578,-5638,5863,614,-641,574,722,-0.688232422,0.715698242,0.0749511719,-39.1235352,35.0341797,44.0673828
579,2895008,3195008,579,-5634,5844,612,-637,587,743,-0.687744141,0.713378906,0.0747070312,-38.8793945,35.8276367,45.3491211
580,2900000,3200000,580,-5562,5874,613,-646,605,762,-0.678955078,0.717041016,0.0748291016,-39.4287109,36.9262695,46.5087891
581,2905008,3205008,581,-5474,5937,599,-660,637,785,-0.668212891,0.724731445,0.0731201172,-40.2832031,38.8793945,47.9125977
582,2910000,3210000,582,-5515,5989,585,-668,684,818,-0.673217773,0.731079102,0.0714111328,-40.7714844,41.7480469,49.9267578
583,2915008,3215008,583,-5589,6004,560,-675,738,844,-0.682250977,0.732910156,0.068359375,-41.1987305,45.0439453,51.5136719
584,2920000,3220000,584,-5547,5956,533,-687,783,870,-0.677124023,0.727050781,0.0650634766,-41.9311523,47.7905273,53.1005859
585,2925008,3225008,585,-5522,5908,521,-705,822,902,-0.674072266,0.721191406,0.0635986328,-43.0297852,50.1708984,55.0537109
586,2930000,3230000,586,-5497,5848,481,-726,861,927,-0.671020508,0.713867188,0.0587158203,-44.3115234,52.5512695,56.5795898
587,2935008,3235008,587,-5471,5743,408,-740,888,953,-0.66784668,0.701049805,0.0498046875,-45.1660156,54.1992188,58.1665039
588,2940000,3240000,588,-5408,5623,347,-748,899,975,-0.66015625,0.686401367,0.0423583984,-45.6542969,54.8706055,59.5092773
589,2945008,3245008,589,-5295,5492,271,-752,903,991,-0.646362305,0.670410156,0.0330810547,-45.8984375,55.1147461,60.4858398
590,2950000,3250000,590,-5229,5420,186,-738,915,1002,-0.638305664,0.661621094,0.0227050781,-45.0439453,55.847168,61.1572266
591,2955008,3255008,591,-5198,5383,82,-708,935,1008,-0.634521484,0.657104492,0.0100097656,-43.2128906,57.0678711,61.5234375
592,2960000,3260000,592,-5189,5296,-55,-664,946,1013,-0.633422852,0.646484375,-0.00671386719,-40.5273438,57.7392578,61.8286133
593,2965008,3265008,593,-5185,5179,-190,-601,952,1014,-0.63293457,0.632202148,-0.0231933594,-36.6821289,58.1054688,61.8896484
594,2970000,3270000,594,-5263,5053,-321,-520,954,1009,-0.642456055,0.616821289,-0.0391845703,-31.7382812,58.2275391,61.5844727
595,2975008,3275008,595,-5379,4927,-393,-418,938,997,-0.656616211,0.60144043,-0.0479736328,-25.5126953,57.2509766,60.8520508
596,2980000,3280000,596,-5558,4815,-390,-304,910,985,-0.678466797,0.587768555,-0.0476074219,-18.5546875,55.5419922,60.1196289
597,2985008,3285008,597,-5788,4766,-334,-186,882,978,-0.706542969,0.581787109,-0.0407714844,-11.3525391,53.8330078,59.6923828
598,2990000,3290000,598,-5967,4763,-243,-63,857,970,-0.728393555,0.581420898,-0.0296630859,-3.84521484,52.3071289,59.2041016
599,2995008,3295008,599,-6167,4824,-116,63,835,954,-0.752807617,0.588867188,-0.0141601562,3.84521484,50.9643555,58.2275391
600,3000000,3300000,600,-6379,4988,37,173,840,931,-0.778686523,0.608886719,0.00451660156,10.559082,51.2695312,56.8237305
601,3005008,3305008,601,-6564,5231,126,250,873,896,-0.801269531,0.638549805,0.0153808594,15.2587891,53.2836914,54.6875
602,3010000,3310000,602,-6692,5499,115,295,904,856,-0.816894531,0.671264648,0.0140380859,18.0053711,55.1757812,52.2460938
603,3015008,3315008,603,-6739,5745,67,303,918,819,-0.822631836,0.701293945,0.00817871094,18.4936523,56.0302734,49.987793
604,3020000,3320000,604,-6744,5929,-4,270,928,773,-0.823242188,0.723754883,-0.00048828125,16.4794922,56.640625,47.1801758
605,3025008,3325008,605,-6673,6032,-196,233,949,722,-0.814575195,0.736328125,-0.0239257812,14.2211914,57.9223633,44.0673828
606,3030000,3330000,606,-6455,6094,-287,194,956,690,-0.787963867,0.743896484,-0.0350341797,11.8408203,58.3496094,42.1142578
607,3035008,3335008,607,-6161,6111,-165,99,938,684,-0.752075195,0.74597168,-0.0201416016,6.04248047,57.2509766,41.7480469
608,3040000,3340000,608,-5866,6159,-85,-48,930,693,-0.716064453,0.751831055,-0.0103759766,-2.9296875,56.7626953,42.2973633
609,3045008,3345008,609,-5564,6257,-86,-198,932,716,-0.679199219,0.763793945,-0.0104980469,-12.0849609,56.8847656,43.7011719
610,3050000,3350000,610,-5278,6341,-132,-320,935,751,-0.644287109,0.774047852,-0.0161132812,-19.53125,57.0678711,45.8374023
611,3055008,3355008,611,-5047,6422,-151,-419,952,787,-0.616088867,0.783935547,-0.0184326172,-25.5737305,58.1054688,48.034668
612,3060000,3360000,612,-4855,6506,-162,-506,995,822,-0.592651367,0.794189453,-0.0197753906,-30.8837891,60.7299805,50.1708984
613,3065008,3365008,613,-4726,6629,-173,-573,1064,853,-0.576904297,0.809204102,-0.0211181641,-34.9731445,64.9414062,52.0629883
614,3070000,3370000,614,-4717,6782,-135,-630,1152,861,-0.575805664,0.827880859,-0.0164794922,-38.4521484,70.3125,52.5512695
615,3075008,3375008,615,-4728,6884,-98,-681,1257,853,-0.577148438,0.840332031,-0.0119628906,-41.5649414,76.7211914,52.0629883
616,3080000,3380000,616,-4803,6874,-122,-694,1362,831,-0.586303711,0.839111328,-0.0148925781,-42.3583984,83.1298828,50.7202148
617,3085008,3385008,617,-4891,6795,-178,-650,1432,801,-0.597045898,0.829467773,-0.0217285156,-39.6728516,87.4023438,48.8891602
618,3090000,3390000,618,-4967,6655,-225,-549,1464,779,-0.606323242,0.81237793,-0.0274658203,-33.5083008,89.3554688,47.5463867
619,3095008,3395008,619,-5166,6395,-219,-404,1454,768,-0.630615234,0.780639648,-0.0267333984,-24.6582031,88.7451172,46.875
620,3100000,3400000,620,-5439,6106,-135,-234,1400,764,-0.66394043,0.745361328,-0.0164794922,-14.2822266,85.4492188,46.6308594
621,3105008,3405008,621,-5781,5873,-16,-56,1322,760,-0.705688477,0.716918945,-0.001953125,-3.41796875,80.6884766,46.3867188
622,3110000,3410000,622,-6135,5692,117,110,1245,759,-0.748901367,0.694824219,0.0142822266,6.71386719,75.9887695,46.3256836
623,3115008,3415008,623,-6442,5579,191,253,1166,774,-0.786376953,0.681030273,0.0233154297,15.4418945,71.1669922,47.2412109
624,3120000,3420000,624,-6689,5543,200,381,1060,794,-0.81652832,0.676635742,0.0244140625,23.2543945,64.6972656,48.4619141
625,3125008,3425008,625,-6831,5559,286,490,936,799,-0.833862305,0.678588867,0.0349121094,29.9072266,57.1289062,48.7670898
626,3130000,3430000,626,-6801,5598,433,555,841,790,-0.830200195,0.683349609,0.0528564453,33.8745117,51.3305664,48.2177734
627,3135008,3435008,627,-6678,5670,543,580,785,766,-0.815185547,0.692138672,0.0662841797,35.4003906,47.9125977,46.7529297
628,3140000,3440000,628,-6516,5731,584,584,768,725,-0.795410156,0.699584961,0.0712890625,35.6445312,46.875,44.2504883
629,3145008,3445008,629,-6325,5769,552,584,772,673,-0.772094727,0.704223633,0.0673828125,35.6445312,47.1191406,41.0766602
630,3150000,3450000,630,-6130,5839,524,580,776,613,-0.748291016,0.712768555,0.0639648438,35.4003906,47.3632812,37.4145508
631,3155008,3455008,631,-5976,5897,480,556,792,556,-0.729492188,0.719848633,0.05859375,33.9355469,48.3398438,33.9355469
632,3160000,3460000,632,-6036,5934,275,532,827,505,-0.736816406,0.724365234,0.0335693359,32.4707031,50.4760742,30.8227539
633,3165008,3465008,633,-6068,5985,94,540,871,458,-0.740722656,0.73059082,0.0114746094,32.9589844,53.1616211,27.9541016
634,3170000,3470000,634,-6080,6074,220,527,885,428,-0.7421875,0.741455078,0.0268554688,32.1655273,54.0161133,26.1230469
635,3175008,3475008,635,-6240,6121,336,465,867,400,-0.76171875,0.747192383,0.041015625,28.3813477,52.9174805,24.4140625
636,3180000,3480000,636,-6385,6065,249,423,840,364,-0.779418945,0.740356445,0.0303955078,25.8178711,51.2695312,22.2167969
637,3185008,3485008,637,-6522,5990,144,430,808,326,-0.796142578,0.731201172,0.017578125,26.2451172,49.3164062,19.8974609
638,3190000,3490000,638,-6686,5910,139,464,782,269,-0.816162109,0.721435547,0.0169677734,28.3203125,47.7294922,16.418457
639,3195008,3495008,639,-6889,5760,208,500,748,196,-0.840942383,0.703125,0.025390625,30.5175781,45.6542969,11.9628906
640,3200000,3500000,640,-7017,5570,290,534,691,121,-0.856567383,0.679931641,0.0354003906,32.5927734,42.175293,7.38525391
641,3205008,3505008,641,-7089,5394,398,557,621,52,-0.865356445,0.658447266,0.0485839844,33.996582,37.902832,3.17382812
642,3210000,3510000,642,-7239,5222,474,572,551,-22,-0.883666992,0.637451172,0.0578613281,34.9121094,33.6303711,-1.34277344
643,3215008,3515008,643,-7362,5073,555,581,481,-116,-0.898681641,0.619262695,0.0677490234,35.4614258,29.3579102,-7.08007812
644,3220000,3520000,644,-7323,4936,694,563,391,-221,-0.893920898,0.602539062,0.0847167969,34.362793,23.8647461,-13.4887695
645,3225008,3525008,645,-7120,4874,801,519,284,-311,-0.869140625,0.594970703,0.0977783203,31.6772461,17.3339844,-18.9819336
646,3230000,3530000,646,-6813,4952,915,450,172,-371,-0.831665039,0.604492188,0.111694336,27.4658203,10.4980469,-22.644043
647,3235008,3535008,647,-6407,5155,1059,356,58,-389,-0.782104492,0.629272461,0.129272461,21.7285156,3.54003906,-23.7426758
648,3240000,3540000,648,-5905,5487,1124,242,-52,-357,-0.720825195,0.669799805,0.137207031,14.7705078,-3.17382812,-21.7895508
649,3245008,3545008,649,-5374,5942,1040,134,-153,-288,-0.656005859,0.725341797,0.126953125,8.17871094,-9.33837891,-17.578125
650,3250000,3550000,650,-4892,6450,818,60,-221,-192,-0.597167969,0.787353516,0.0998535156,3.66210938,-13.4887695,-11.71875
651,3255008,3555008,651,-4502,6965,504,24,-235,-76,-0.549560547,0.850219727,0.0615234375,1.46484375,-14.3432617,-4.63867188
652,3260000,3560000,652,-4259,7478,81,0,-210,44,-0.519897461,0.912841797,0.00988769531,0,-12.8173828,2.68554688
653,3265008,3565008,653,-4082,7750,-573,-30,-161,141,-0.498291016,0.946044922,-0.0699462891,-1.83105469,-9.82666016,8.60595703
654,3270000,3570000,654,-3911,7765,-1394,-61,-89,212,-0.477416992,0.947875977,-0.170166016,-3.72314453,-5.43212891,12.9394531
655,3275008,3575008,655,-3904,7626,-2102,-103,4,253,-0.4765625,0.930908203,-0.256591797,-6.28662109,0.244140625,15.4418945
656,3280000,3580000,656,-4103,7135,-2617,-139,102,246,-0.500854492,0.87097168,-0.319458008,-8.48388672,6.22558594,15.0146484
657,3285008,3585008,657,-4514,6348,-2875,-107,193,203,-0.551025391,0.774902344,-0.350952148,-6.53076172,11.7797852,12.3901367
658,3290000,3590000,658,-5017,5657,-2707,-8,248,148,-0.612426758,0.690551758,-0.330444336,-0.48828125,15.1367188,9.03320312
659,3295008,3595008,659,-5508,5293,-2177,95,213,116,-0.672363281,0.646118164,-0.26574707,5.79833984,13.0004883,7.08007812
660,3300000,3600000,660,-5972,5169,-1484,183,94,102,-0.729003906,0.630981445,-0.181152344,11.1694336,5.73730469,6.22558594
661,3305008,3605008,661,-6282,5260,-733,267,-45,85,-0.766845703,0.642089844,-0.0894775391,16.2963867,-2.74658203,5.18798828
662,3310000,3610000,662,-6329,5528,-25,326,-182,70,-0.772583008,0.674804688,-0.00305175781,19.8974609,-11.1083984,4.27246094
663,3315008,3615008,663,-6092,5829,531,339,-302,66,-0.743652344,0.711547852,0.0648193359,20.690918,-18.4326172,4.02832031
664,3320000,3620000,664,-5625,6108,814,306,-353,74,-0.686645508,0.745605469,0.0993652344,18.6767578,-21.5454102,4.51660156
665,3325008,3625008,665,-5141,6358,808,242,-310,85,-0.627563477,0.776123047,0.0986328125,14.7705078,-18.9208984,5.18798828
666,3330000,3630000,666,-4838,6533,579,168,-209,94,-0.590576172,0.797485352,0.0706787109,10.2539062,-12.7563477,5.73730469
667,3335008,3635008,667,-4805,6626,296,91,-104,104,-0.586547852,0.808837891,0.0361328125,5.55419922,-6.34765625,6.34765625
668,3340000,3640000,668,-4989,6662,21,11,-24,110,-0.609008789,0.813232422,0.00256347656,0.671386719,-1.46484375,6.71386719
669,3345008,3645008,669,-5249,6627,-273,-58,20,106,-0.64074707,0.808959961,-0.0333251953,-3.54003906,1.22070312,6.46972656
670,3350000,3650000,670,-5515,6570,-494,-106,25,95,-0.673217773,0.802001953,-0.0603027344,-6.46972656,1.52587891,5.79833984
671,3355008,3655008,671,-5734,6526,-566,-145,-6,80,-0.699951172,0.796630859,-0.0690917969,-8.85009766,-0.366210938,4.8828125
672,3360000,3660000,672,-5910,6483,-473,-186,-57,60,-0.721435547,0.791381836,-0.0577392578,-11.3525391,-3.47900391,3.66210938
673,3365008,3665008,673,-6025,6408,-303,-224,-114,33,-0.735473633,0.782226562,-0.0369873047,-13.671875,-6.95800781,2.01416016
674,3370000,3670000,674,-6078,6291,-141,-246,-167,1,-0.741943359,0.767944336,-0.0172119141,-15.0146484,-10.1928711,0.0610351562
675,3375008,3675008,675,-6079,6143,10,-258,-212,-36,-0.74206543,0.74987793,0.00122070312,-15.7470703,-12.9394531,-2.19726562
676,3380000,3680000,676,-6059,5965,134,-271,-241,-77,-0.739624023,0.728149414,0.0163574219,-16.5405273,-14.7094727,-4.69970703
677,3385008,3685008,677,-6080,5752,202,-284,-258,-124,-0.7421875,0.702148438,0.0246582031,-17.3339844,-15.7470703,-7.56835938
678,3390000,3690000,678,-6111,5500,242,-295,-272,-175,-0.74597168,0.671386719,0.0295410156,-18.0053711,-16.6015625,-10.6811523
679,3395008,3695008,679,-6134,5237,271,-307,-287,-230,-0.748779297,0.639282227,0.0330810547,-18.737793,-17.5170898,-14.0380859
680,3400000,3700000,680,-6135,4983,253,-315,-302,-284,-0.748901367,0.608276367,0.0308837891,-19.2260742,-18.4326172,-17.3339844
681,3405008,3705008,681,-6111,4738,192,-311,-323,-340,-0.74597168,0.578369141,0.0234375,-18.9819336,-19.7143555,-20.7519531
682,3410000,3710000,682,-6073,4517,148,-297,-344,-400,-0.741333008,0.551391602,0.0180664062,-18.1274414,-20.9960938,-24.4140625
683,3415008,3715008,683,-6020,4360,117,-280,-364,-461,-0.734863281,0.532226562,0.0142822266,-17.0898438,-22.2167969,-28.137207
684,3420000,3720000,684,-6012,4269,71,-260,-386,-520,-0.733886719,0.521118164,0.00866699219,-15.8691406,-23.5595703,-31.7382812
685,3425008,3725008,685,-6074,4242,53,-241,-406,-579,-0.741455078,0.517822266,0.00646972656,-14.7094727,-24.7802734,-35.3393555
686,3430000,3730000,686,-6159,4265,57,-233,-425,-639,-0.751831055,0.520629883,0.00695800781,-14.2211914,-25.9399414,-39.0014648
687,3435008,3735008,687,-6258,4314,56,-231,-455,-697,-0.763916016,0.526611328,0.0068359375,-14.0991211,-27.7709961,-42.5415039
688,3440000,3740000,688,-6320,4388,61,-230,-499,-749,-0.771484375,0.535644531,0.00744628906,-14.0380859,-30.456543,-45.715332
689,3445008,3745008,689,-6327,4455,79,-231,-544,-793,-0.772338867,0.543823242,0.00964355469,-14.0991211,-33.203125,-48.4008789
690,3450000,3750000,690,-6314,4488,67,-230,-589,-841,-0.770751953,0.547851562,0.00817871094,-14.0380859,-35.949707,-51.3305664
691,3455008,3755008,691,-6229,4473,-1,-217,-636,-892,-0.760375977,0.546020508,-0.000122070312,-13.2446289,-38.8183594,-54.4433594
692,3460000,3760000,692,-6126,4443,-67,-183,-678,-940,-0.747802734,0.542358398,-0.00817871094,-11.1694336,-41.3818359,-57.3730469
693,3465008,3765008,693,-6056,4449,-110,-135,-703,-982,-0.739257812,0.54309082,-0.0134277344,-8.23974609,-42.9077148,-59.9365234
694,3470000,3770000,694,-6039,4518,-108,-95,-718,-1026,-0.737182617,0.551513672,-0.0131835938,-5.79833984,-43.8232422,-62.6220703
695,3475008,3775008,695,-6081,4616,-75,-68,-724,-1071,-0.74230957,0.563476562,-0.00915527344,-4.15039062,-44.1894531,-65.3686523
696,3480000,3780000,696,-6119,4700,-60,-46,-720,-1115,-0.746948242,0.573730469,-0.00732421875,-2.80761719,-43.9453125,-68.0541992
697,3485008,3785008,697,-6137,4809,0,-29,-711,-1163,-0.749145508,0.587036133,0,-1.77001953,-43.3959961,-70.9838867
698,3490000,3790000,698,-6087,4947,92,-28,-705,-1207,-0.743041992,0.603881836,0.0112304688,-1.70898438,-43.0297852,-73.6694336
699,3495008,3795008,699,-6002,5069,112,-31,-701,-1244,-0.732666016,0.618774414,0.013671875,-1.89208984,-42.7856445,-75.9277344
700,3500000,3800000,700,-5905,5158,118,-27,-698,-1280,-0.720825195,0.629638672,0.0144042969,-1.64794922,-42.6025391,-78.125
701,3505008,3805008,701,-5830,5230,159,-17,-690,-1310,-0.711669922,0.638427734,0.0194091797,-1.03759766,-42.1142578,-79.9560547
702,3510000,3810000,702,-5856,5353,225,-12,-671,-1331,-0.71484375,0.653442383,0.0274658203,-0.732421875,-40.9545898,-81.237793
703,3515008,3815008,703,-6014,5483,243,-19,-662,-1346,-0.734130859,0.669311523,0.0296630859,-1.15966797,-40.4052734,-82.1533203
704,3520000,3820000,704,-6240,5608,179,-24,-674,-1356,-0.76171875,0.684570312,0.0218505859,-1.46484375,-41.1376953,-82.7636719
705,3525008,3825008,705,-6376,5733,93,-18,-694,-1365,-0.778320312,0.699829102,0.0113525391,-1.09863281,-42.3583984,-83.3129883
706,3530000,3830000,706,-6392,5817,41,1,-706,-1366,-0.780273438,0.710083008,0.00500488281,0.0610351562,-43.0908203,-83.3740234
707,3535008,3835008,707,-6354,5911,75,28,-716,-1364,-0.775634766,0.721557617,0.00915527344,1.70898438,-43.7011719,-83.2519531
708,3540000,3840000,708,-6287,5996,178,55,-728,-1359,-0.767456055,0.731933594,0.0217285156,3.35693359,-44.4335938,-82.9467773
709,3545008,3845008,709,-6272,6096,345,81,-749,-1350,-0.765625,0.744140625,0.0421142578,4.94384766,-45.715332,-82.3974609
710,3550000,3850000,710,-6356,6205,533,100,-777,-1342,-0.775878906,0.757446289,0.0650634766,6.10351562,-47.4243164,-81.9091797
711,3555008,3855008,711,-6486,6242,594,125,-803,-1340,-0.791748047,0.761962891,0.0725097656,7.62939453,-49.0112305,-81.7871094
712,3560000,3860000,712,-6615,6269,562,179,-840,-1328,-0.807495117,0.765258789,0.0686035156,10.925293,-51.2695312,-81.0546875
713,3565008,3865008,713,-6762,6295,535,239,-901,-1300,-0.825439453,0.768432617,0.0653076172,14.5874023,-54.9926758,-79.3457031
714,3570000,3870000,714,-6907,6301,517,290,-981,-1270,-0.843139648,0.769165039,0.0631103516,17.7001953,-59.8754883,-77.5146484
715,3575008,3875008,715,-6957,6329,564,326,-1060,-1238,-0.849243164,0.772583008,0.0688476562,19.8974609,-64.6972656,-75.5615234
716,3580000,3880000,716,-6931,6342,617,338,-1122,-1208,-0.846069336,0.774169922,0.0753173828,20.6298828,-68.4814453,-73.7304688
717,3585008,3885008,717,-6869,6335,645,330,-1170,-1183,-0.838500977,0.77331543,0.0787353516,20.1416016,-71.4111328,-72.2045898
718,3590000,3890000,718,-6748,6346,739,295,-1200,-1164,-0.823730469,0.774658203,0.0902099609,18.0053711,-73.2421875,-71.0449219
719,3595008,3895008,719,-6648,6325,749,231,-1205,-1144,-0.811523438,0.772094727,0.0914306641,14.0991211,-73.5473633,-69.8242188
720,3600000,3900000,720,-6662,6273,583,177,-1212,-1122,-0.813232422,0.76574707,0.0711669922,10.8032227,-73.9746094,-68.4814453
721,3605008,3905008,721,-6701,6217,397,149,-1223,-1106,-0.817993164,0.758911133,0.0484619141,9.09423828,-74.6459961,-67.5048828
722,3610000,3910000,722,-6716,6107,285,126,-1218,-1097,-0.819824219,0.745483398,0.0347900391,7.69042969,-74.3408203,-66.9555664
723,3615008,3915008,723,-6711,5914,172,102,-1200,-1088,-0.819213867,0.721923828,0.0209960938,6.22558594,-73.2421875,-66.40625
724,3620000,3920000,724,-6696,5670,9,86,-1192,-1069,-0.817382812,0.692138672,0.00109863281,5.24902344,-72.7539062,-65.246582
725,3625008,3925008,725,-6704,5456,-124,89,-1191,-1044,-0.818359375,0.666015625,-0.0151367188,5.43212891,-72.6928711,-63.7207031
726,3630000,3930000,726,-6730,5318,-194,105,-1180,-1024,-0.821533203,0.649169922,-0.0236816406,6.40869141,-72.0214844,-62.5
727,3635008,3935008,727,-6703,5221,-203,126,-1162,-999,-0.818237305,0.637329102,-0.0247802734,7.69042969,-70.9228516,-60.9741211
728,3640000,3940000,728,-6679,5125,-163,156,-1138,-958,-0.815307617,0.625610352,-0.0198974609,9.52148438,-69.4580078,-58.4716797
729,3645008,3945008,729,-6780,5066,-64,187,-1109,-905,-0.827636719,0.618408203,-0.0078125,11.4135742,-67.6879883,-55.2368164
730,3650000,3950000,730,-6894,4999,40,198,-1091,-847,-0.841552734,0.610229492,0.0048828125,12.0849609,-66.5893555,-51.6967773
731,3655008,3955008,731,-6984,4939,17,214,-1101,-788,-0.852539062,0.602905273,0.00207519531,13.0615234,-67.199707,-48.0957031
732,3660000,3960000,732,-7021,4942,-92,254,-1143,-744,-0.857055664,0.603271484,-0.0112304688,15.5029297,-69.7631836,-45.4101562
733,3665008,3965008,733,-6884,4957,-154,302,-1203,-706,-0.840332031,0.605102539,-0.0187988281,18.4326172,-73.425293,-43.0908203
734,3670000,3970000,734,-6738,5049,-138,347,-1256,-665,-0.822509766,0.616333008,-0.0168457031,21.1791992,-76.6601562,-40.5883789
735,3675008,3975008,735,-6718,5135,-75,391,-1285,-640,-0.820068359,0.626831055,-0.00915527344,23.8647461,-78.4301758,-39.0625
736,3680000,3980000,736,-6700,5089,12,437,-1297,-625,-0.817871094,0.62121582,0.00146484375,26.6723633,-79.1625977,-38.1469727
737,3685008,3985008,737,-6719,5063,172,477,-1303,-601,-0.82019043,0.618041992,0.0209960938,29.1137695,-79.5288086,-36.6821289
738,3690000,3990000,738,-6758,5023,392,506,-1294,-572,-0.824951172,0.61315918,0.0478515625,30.8837891,-78.9794922,-34.9121094
739,3695008,3995008,739,-6733,4904,537,536,-1271,-540,-0.821899414,0.598632812,0.0655517578,32.7148438,-77.5756836,-32.9589844
740,3700000,4000000,740,-6626,4850,629,572,-1255,-509,-0.808837891,0.592041016,0.0767822266,34.9121094,-76.5991211,-31.0668945
741,3705008,4005008,741,-6455,4875,730,593,-1238,-478,-0.787963867,0.595092773,0.0891113281,36.1938477,-75.5615234,-29.1748047
742,3710000,4010000,742,-6355,4898,745,587,-1208,-448,-0.775756836,0.597900391,0.0909423828,35.8276367,-73.7304688,-27.34375
743,3715008,4015008,743,-6344,4871,673,571,-1174,-432,-0.774414062,0.594604492,0.0821533203,34.8510742,-71.6552734,-26.3671875
744,3720000,4020000,744,-6374,4744,531,554,-1147,-424,-0.778076172,0.579101562,0.0648193359,33.8134766,-70.0073242,-25.8789062
745,3725008,4025008,745,-6573,4598,375,550,-1139,-401,-0.802368164,0.561279297,0.0457763672,33.5693359,-69.519043,-24.4750977
746,3730000,4030000,746,-6975,4531,275,572,-1158,-368,-0.85144043,0.553100586,0.0335693359,34.9121094,-70.6787109,-22.4609375
747,3735008,4035008,747,-7246,4495,296,608,-1206,-346,-0.884521484,0.548706055,0.0361328125,37.109375,-73.6083984,-21.1181641
748,3740000,4040000,748,-7239,4439,430,642,-1255,-334,-0.883666992,0.541870117,0.0524902344,39.1845703,-76.5991211,-20.3857422
749,3745008,4045008,749,-7019,4373,588,679,-1291,-333,-0.856811523,0.533813477,0.0717773438,41.4428711,-78.7963867,-20.324707
750,3750000,4050000,750,-6852,4362,797,731,-1303,-330,-0.836425781,0.532470703,0.0972900391,44.6166992,-79.5288086,-20.1416016
751,3755008,4055008,751,-6801,4411,1136,769,-1296,-315,-0.830200195,0.538452148,0.138671875,46.9360352,-79.1015625,-19.2260742
752,3760000,4060000,752,-6662,4439,1443,761,-1283,-315,-0.813232422,0.541870117,0.176147461,46.4477539,-78.3081055,-19.2260742
753,3765008,4065008,753,-6291,4485,1574,718,-1243,-336,-0.767944336,0.547485352,0.192138672,43.8232422,-75.8666992,-20.5078125
754,3770000,4070000,754,-6113,4510,1562,677,-1167,-337,-0.74621582,0.550537109,0.190673828,41.3208008,-71.2280273,-20.5688477
755,3775008,4075008,755,-6383,4499,1537,663,-1105,-295,-0.779174805,0.549194336,0.18762207,40.4663086,-67.4438477,-18.0053711
756,3780000,4080000,756,-6589,4616,1600,660,-1090,-256,-0.804321289,0.563476562,0.1953125,40.2832031,-66.5283203,-15.625
757,3785008,4085008,757,-6428,4772,1642,626,-1090,-238,-0.784667969,0.582519531,0.200439453,38.2080078,-66.5283203,-14.5263672
758,3790000,4090000,758,-6268,4799,1599,579,-1075,-209,-0.765136719,0.58581543,0.19519043,35.3393555,-65.612793,-12.7563477
759,3795008,4095008,759,-6408,4723,1573,548,-1052,-189,-0.782226562,0.576538086,0.192016602,33.4472656,-64.2089844,-11.5356445
760,3800000,4100000,760,-6504,4634,1576,514,-1031,-188,-0.793945312,0.565673828,0.192382812,31.3720703,-62.9272461,-11.4746094
761,3805008,4105008,761,-6417,4578,1511,472,-1015,-183,-0.783325195,0.558837891,0.184448242,28.8085938,-61.9506836,-11.1694336
762,3810000,4110000,762,-6393,4560,1516,432,-994,-169,-0.780395508,0.556640625,0.185058594,26.3671875,-60.6689453,-10.3149414
763,3815008,4115008,763,-6363,4523,1557,379,-967,-162,-0.776733398,0.552124023,0.190063477,23.1323242,-59.0209961,-9.88769531
764,3820000,4120000,764,-6263,4489,1514,331,-929,-163,-0.764526367,0.547973633,0.184814453,20.2026367,-56.7016602,-9.94873047
765,3825008,4125008,765,-6300,4455,1440,306,-886,-153,-0.769042969,0.543823242,0.17578125,18.6767578,-54.0771484,-9.33837891
766,3830000,4130000,766,-6349,4366,1326,303,-860,-155,-0.775024414,0.532958984,0.161865234,18.4936523,-52.4902344,-9.46044922
767,3835008,4135008,767,-6437,4295,1260,329,-842,-156,-0.785766602,0.524291992,0.153808594,20.0805664,-51.3916016,-9.52148438
768,3840000,4140000,768,-6469,4250,1374,362,-842,-155,-0.789672852,0.518798828,0.167724609,22.0947266,-51.3916016,-9.46044922
769,3845008,4145008,769,-6480,4249,1531,383,-861,-135,-0.791015625,0.518676758,0.186889648,23.3764648,-52.5512695,-8.23974609
770,3850000,4150000,770,-6512,4280,1659,390,-886,-111,-0.794921875,0.522460938,0.202514648,23.8037109,-54.0771484,-6.77490234
771,3855008,4155008,771,-6405,4267,1692,374,-897,-115,-0.781860352,0.520874023,0.206542969,22.8271484,-54.7485352,-7.01904297
772,3860000,4160000,772,-6235,4233,1655,350,-869,-120,-0.761108398,0.516723633,0.202026367,21.3623047,-53.0395508,-7.32421875
773,3865008,4165008,773,-6051,4235,1594,329,-823,-130,-0.738647461,0.516967773,0.194580078,20.0805664,-50.2319336,-7.93457031
774,3870000,4170000,774,-6067,4263,1409,319,-770,-130,-0.740600586,0.520385742,0.17199707,19.4702148,-46.9970703,-7.93457031
775,3875008,4175008,775,-6333,4284,1306,345,-736,-119,-0.773071289,0.522949219,0.159423828,21.0571289,-44.921875,-7.26318359
776,3880000,4180000,776,-6544,4356,1364,377,-740,-115,-0.798828125,0.531738281,0.166503906,23.0102539,-45.1660156,-7.01904297
777,3885008,4185008,777,-6581,4469,1491,381,-746,-111,-0.803344727,0.545532227,0.182006836,23.2543945,-45.5322266,-6.77490234
778,3890000,4190000,778,-6583,4526,1600,367,-734,-112,-0.803588867,0.552490234,0.1953125,22.3999023,-44.7998047,-6.8359375
779,3895008,4195008,779,-6653,4456,1639,357,-715,-107,-0.812133789,0.543945312,0.200073242,21.7895508,-43.6401367,-6.53076172
780,3900000,4200000,780,-6674,4417,1655,350,-706,-102,-0.814697266,0.53918457,0.202026367,21.3623047,-43.0908203,-6.22558594
781,3905008,4205008,781,-6542,4526,1716,342,-701,-110,-0.798583984,0.552490234,0.209472656,20.8740234,-42.7856445,-6.71386719
782,3910000,4210000,782,-6290,4647,1784,307,-668,-124,-0.767822266,0.567260742,0.217773438,18.737793,-40.7714844,-7.56835938
783,3915008,4215008,783,-6223,4717,1711,260,-603,-120,-0.759643555,0.575805664,0.208862305,15.8691406,-36.8041992,-7.32421875
784,3920000,4220000,784,-6343,4723,1592,251,-546,-92,-0.774291992,0.576538086,0.194335938,15.3198242,-33.3251953,-5.61523438
785,3925008,4225008,785,-6391,4748,1597,254,-525,-75,-0.780151367,0.579589844,0.194946289,15.5029297,-32.043457,-4.57763672
786,3930000,4230000,786,-6331,4819,1724,240,-515,-60,-0.772827148,0.588256836,0.210449219,14.6484375,-31.4331055,-3.66210938
787,3935008,4235008,787,-6192,4860,1872,206,-489,-36,-0.755859375,0.593261719,0.228515625,12.5732422,-29.8461914,-2.19726562
788,3940000,4240000,788,-6086,4921,1913,166,-445,-13,-0.742919922,0.600708008,0.233520508,10.1318359,-27.1606445,-0.793457031
789,3945008,4245008,789,-5997,4962,1853,129,-399,8,-0.732055664,0.605712891,0.226196289,7.87353516,-24.3530273,0.48828125
790,3950000,4250000,790,-6040,4936,1799,103,-362,31,-0.737304688,0.602539062,0.219604492,6.28662109,-22.0947266,1.89208984
791,3955008,4255008,791,-6128,4891,1775,95,-339,51,-0.748046875,0.597045898,0.216674805,5.79833984,-20.690918,3.11279297
792,3960000,4260000,792,-6144,4822,1820,92,-331,68,-0.75,0.588623047,0.222167969,5.61523438,-20.2026367,4.15039062
793,3965008,4265008,793,-6145,4773,1908,84,-317,88,-0.75012207,0.582641602,0.232910156,5.12695312,-19.3481445,5.37109375
794,3970000,4270000,794,-6126,4805,1979,64,-282,105,-0.747802734,0.586547852,0.241577148,3.90625,-17.2119141,6.40869141
795,3975008,4275008,795,-6146,4863,1990,37,-236,128,-0.750244141,0.59362793,0.242919922,2.25830078,-14.4042969,7.8125
796,3980000,4280000,796,-6195,4878,1967,10,-194,151,-0.756225586,0.595458984,0.240112305,0.610351562,-11.8408203,9.21630859
797,3985008,4285008,797,-6194,4875,1940,-19,-160,166,-0.756103516,0.595092773,0.236816406,-1.15966797,-9.765625,10.1318359
798,3990000,4290000,798,-6149,4856,1844,-47,-125,179,-0.750610352,0.592773438,0.225097656,-2.86865234,-7.62939453,10.925293
799,3995008,4295008,799,-6146,4871,1785,-69,-87,192,-0.750244141,0.594604492,0.217895508,-4.21142578,-5.31005859,11.71875
800,4000000,4300000,800,-6149,4884,1796,-93,-58,203,-0.750610352,0.596191406,0.219238281,-5.67626953,-3.54003906,12.3901367
801,4005008,4305008,801,-6120,4881,1835,-123,-34,206,-0.747070312,0.595825195,0.223999023,-7.50732422,-2.07519531,12.5732422
802,4010000,4310000,802,-6050,4859,1879,-154,-2,197,-0.738525391,0.593139648,0.229370117,-9.39941406,-0.122070312,12.0239258
803,4015008,4315008,803,-6006,4826,1948,-180,43,185,-0.733154297,0.589111328,0.237792969,-10.9863281,2.62451172,11.2915039
804,4020000,4320000,804,-6088,4800,2011,-208,99,167,-0.743164062,0.5859375,0.245483398,-12.6953125,6.04248047,10.1928711
805,4025008,4325008,805,-6213,4725,1962,-242,154,146,-0.758422852,0.576782227,0.239501953,-14.7705078,9.39941406,8.91113281
806,4030000,4330000,806,-6284,4630,1823,-270,208,123,-0.767089844,0.565185547,0.22253418,-16.4794922,12.6953125,7.50732422
807,4035008,4335008,807,-6314,4555,1689,-286,258,102,-0.770751953,0.556030273,0.206176758,-17.4560547,15.7470703,6.22558594
808,4040000,4340000,808,-6333,4485,1612,-293,299,89,-0.773071289,0.547485352,0.196777344,-17.8833008,18.2495117,5.43212891
809,4045008,4345008,809,-6313,4433,1573,-297,327,81,-0.770629883,0.541137695,0.192016602,-18.1274414,19.9584961,4.94384766
810,4050000,4350000,810,-6266,4418,1560,-297,349,79,-0.764892578,0.539306641,0.190429688,-18.1274414,21.3012695,4.82177734
811,4055008,4355008,811,-6215,4420,1571,-293,364,84,-0.758666992,0.539550781,0.191772461,-17.8833008,22.2167969,5.12695312
812,4060000,4360000,812,-6162,4430,1606,-287,377,93,-0.752197266,0.540771484,0.196044922,-17.5170898,23.0102539,5.67626953
813,4065008,4365008,813,-6097,4467,1675,-284,390,102,-0.744262695,0.545288086,0.204467773,-17.3339844,23.8037109,6.22558594
814,4070000,4370000,814,-6016,4494,1759,-290,406,112,-0.734375,0.548583984,0.21472168,-17.7001953,24.7802734,6.8359375
815,4075008,4375008,815,-5942,4506,1824,-303,427,122,-0.725341797,0.550048828,0.22265625,-18.4936523,26.0620117,7.44628906
816,4080000,4380000,816,-5908,4548,1873,-316,455,131,-0.721191406,0.555175781,0.228637695,-19.2871094,27.7709961,7.99560547
817,4085008,4385008,817,-5904,4597,1910,-332,490,141,-0.720703125,0.561157227,0.233154297,-20.2636719,29.9072266,8.60595703
818,4090000,4390000,818,-5926,4626,1927,-350,527,149,-0.723388672,0.564697266,0.235229492,-21.3623047,32.1655273,9.09423828
819,4095008,4395008,819,-5972,4649,1907,-370,566,156,-0.729003906,0.567504883,0.232788086,-22.5830078,34.5458984,9.52148438
820,4100000,4400000,820,-6025,4659,1868,-388,608,163,-0.735473633,0.568725586,0.228027344,-23.6816406,37.109375,9.94873047
821,4105008,4405008,821,-6089,4665,1835,-405,657,173,-0.743286133,0.569458008,0.223999023,-24.7192383,40.1000977,10.559082
822,4110000,4410000,822,-6158,4676,1778,-427,708,184,-0.751708984,0.570800781,0.217041016,-26.0620117,43.2128906,11.2304688
823,4115008,4415008,823,-6221,4707,1729,-453,762,198,-0.759399414,0.574584961,0.21105957,-27.6489258,46.5087891,12.0849609
824,4120000,4420000,824,-6270,4777,1706,-484,820,218,-0.765380859,0.583129883,0.208251953,-29.5410156,50.0488281,13.3056641
825,4125008,4425008,825,-6288,4838,1685,-522,875,241,-0.767578125,0.590576172,0.205688477,-31.8603516,53.4057617,14.7094727
826,4130000,4430000,826,-6282,4855,1660,-561,928,272,-0.766845703,0.592651367,0.202636719,-34.2407227,56.640625,16.6015625
827,4135008,4435008,827,-6311,4852,1636,-596,975,303,-0.770385742,0.592285156,0.199707031,-36.3769531,59.5092773,18.4936523
828,4140000,4440000,828,-6373,4808,1582,-617,1007,330,-0.777954102,0.586914062,0.193115234,-37.6586914,61.4624023,20.1416016
829,4145008,4445008,829,-6447,4773,1548,-623,1023,358,-0.786987305,0.582641602,0.188964844,-38.0249023,62.4389648,21.8505859
830,4150000,4450000,830,-6521,4805,1530,-619,1024,390,-0.796020508,0.586547852,0.186767578,-37.7807617,62.5,23.8037109
831,4155008,4455008,831,-6576,4870,1490,-601,1007,425,-0.802734375,0.594482422,0.181884766,-36.6821289,61.4624023,25.9399414
832,4160000,4460000,832,-6643,4974,1503,-580,972,456,-0.810913086,0.607177734,0.18347168,-35.4003906,59.3261719,27.8320312
833,4165008,4465008,833,-6730,5074,1567,-567,929,475,-0.821533203,0.619384766,0.19128418,-34.6069336,56.7016602,28.9916992
834,4170000,4470000,834,-6760,5103,1633,-563,881,482,-0.825195312,0.622924805,0.19934082,-34.362793,53.7719727,29.4189453
835,4175008,4475008,835,-6737,5084,1679,-555,833,490,-0.822387695,0.620605469,0.204956055,-33.8745117,50.8422852,29.9072266
836,4180000,4480000,836,-6727,5059,1741,-540,798,507,-0.821166992,0.617553711,0.212524414,-32.9589844,48.7060547,30.9448242
837,4185008,4485008,837,-6712,5046,1812,-529,786,521,-0.819335938,0.615966797,0.221191406,-32.2875977,47.9736328,31.7993164
838,4190000,4490000,838,-6666,5041,1824,-523,792,537,-0.813720703,0.615356445,0.22265625,-31.9213867,48.3398438,32.7758789
839,4195008,4495008,839,-6620,5030,1788,-514,808,562,-0.808105469,0.614013672,0.218261719,-31.3720703,49.3164062,34.3017578
840,4200000,4500000,840,-6591,5047,1769,-501,828,587,-0.80456543,0.616088867,0.215942383,-30.5786133,50.5371094,35.8276367
841,4205008,4505008,841,-6538,5089,1748,-502,848,610,-0.798095703,0.62121582,0.213378906,-30.6396484,51.7578125,37.2314453
842,4210000,4510000,842,-6463,5110,1696,-513,871,633,-0.78894043,0.623779297,0.20703125,-31.3110352,53.1616211,38.6352539
843,4215008,4515008,843,-6388,5088,1634,-526,895,655,-0.779785156,0.62109375,0.199462891,-32.1044922,54.6264648,39.9780273
844,4220000,4520000,844,-6330,5047,1561,-536,915,680,-0.772705078,0.616088867,0.190551758,-32.7148438,55.847168,41.5039062
845,4225008,4525008,845,-6349,5017,1464,-534,935,715,-0.775024414,0.612426758,0.178710938,-32.5927734,57.0678711,43.6401367
846,4230000,4530000,846,-6363,4995,1397,-523,950,752,-0.776733398,0.609741211,0.170532227,-31.9213867,57.9833984,45.8984375
847,4235008,4535008,847,-6262,5022,1359,-522,959,782,-0.764404297,0.613037109,0.165893555,-31.8603516,58.5327148,47.7294922
848,4240000,4540000,848,-6190,5053,1287,-523,972,815,-0.755615234,0.616821289,0.157104492,-31.9213867,59.3261719,49.7436523
849,4245008,4545008,849,-6173,5063,1207,-518,987,846,-0.753540039,0.618041992,0.147338867,-31.6162109,60.2416992,51.6357422
850,4250000,4550000,850,-6182,5109,1153,-507,995,873,-0.754638672,0.623657227,0.14074707,-30.9448242,60.7299805,53.2836914
851,4255008,4555008,851,-6249,5150,1102,-494,999,898,-0.762817383,0.628662109,0.134521484,-30.1513672,60.9741211,54.8095703
852,4260000,4560000,852,-6297,5156,1084,-490,999,922,-0.768676758,0.629394531,0.132324219,-29.9072266,60.9741211,56.2744141
853,4265008,4565008,853,-6344,5185,1103,-499,986,947,-0.774414062,0.63293457,0.134643555,-30.456543,60.1806641,57.800293
854,4270000,4570000,854,-6361,5243,1080,-515,968,962,-0.776489258,0.640014648,0.131835938,-31.4331055,59.0820312,58.7158203
855,4275008,4575008,855,-6397,5303,1043,-525,960,969,-0.780883789,0.647338867,0.127319336,-32.043457,58.59375,59.1430664
856,4280000,4580000,856,-6538,5346,1002,-531,949,976,-0.798095703,0.652587891,0.122314453,-32.409668,57.9223633,59.5703125
857,4285008,4585008,857,-6649,5370,944,-527,916,977,-0.811645508,0.655517578,0.115234375,-32.1655273,55.9082031,59.6313477
858,4290000,4590000,858,-6708,5409,937,-508,869,975,-0.818847656,0.66027832,0.114379883,-31.0058594,53.0395508,59.5092773
859,4295008,4595008,859,-6790,5408,970,-487,827,971,-0.828857422,0.66015625,0.118408203,-29.7241211,50.4760742,59.2651367
860,4300000,4600000,860,-6817,5361,983,-463,802,967,-0.83215332,0.654418945,0.119995117,-28.2592773,48.9501953,59.0209961
861,4305008,4605008,861,-6752,5362,1025,-438,801,967,-0.82421875,0.654541016,0.12512207,-26.7333984,48.8891602,59.0209961
862,4310000,4610000,862,-6706,5378,1075,-423,814,963,-0.818603516,0.656494141,0.131225586,-25.8178711,49.6826172,58.7768555
863,4315008,4615008,863,-6621,5379,1074,-417,828,953,-0.808227539,0.656616211,0.131103516,-25.4516602,50.5371094,58.1665039
864,4320000,4620000,864,-6455,5364,1083,-419,847,939,-0.787963867,0.654785156,0.132202148,-25.5737305,51.6967773,57.3120117
865,4325008,4625008,865,-6335,5313,1069,-429,879,926,-0.77331543,0.64855957,0.130493164,-26.184082,53.6499023,56.5185547
866,4330000,4630000,866,-6224,5204,964,-429,915,916,-0.759765625,0.635253906,0.117675781,-26.184082,55.847168,55.9082031
867,4335008,4635008,867,-6149,5071,859,-399,934,919,-0.750610352,0.619018555,0.104858398,-24.3530273,57.0068359,56.0913086
868,4340000,4640000,868,-6102,4992,755,-346,938,922,-0.744873047,0.609375,0.0921630859,-21.1181641,57.2509766,56.2744141
869,4345008,4645008,869,-6037,4989,630,-274,942,910,-0.736938477,0.609008789,0.0769042969,-16.7236328,57.4951172,55.5419922
870,4350000,4650000,870,-5931,4989,556,-193,944,906,-0.723999023,0.609008789,0.0678710938,-11.7797852,57.6171875,55.2978516
871,4355008,4655008,871,-5805,4931,564,-123,916,918,-0.708618164,0.601928711,0.0688476562,-7.50732422,55.9082031,56.0302734
872,4360000,4660000,872,-5803,4871,660,-65,878,936,-0.708374023,0.594604492,0.0805664062,-3.96728516,53.5888672,57.1289062
873,4365008,4665008,873,-5857,4847,731,-7,859,945,-0.71496582,0.591674805,0.0892333984,-0.427246094,52.4291992,57.6782227
874,4370000,4670000,874,-5893,4859,734,67,846,944,-0.719360352,0.593139648,0.0895996094,4.08935547,51.6357422,57.6171875
875,4375008,4675008,875,-5943,4904,731,147,828,943,-0.725463867,0.598632812,0.0892333984,8.97216797,50.5371094,57.5561523
876,4380000,4680000,876,-6073,5020,736,211,812,942,-0.741333008,0.612792969,0.08984375,12.878418,49.5605469,57.4951172
877,4385008,4685008,877,-6254,5154,695,259,811,939,-0.763427734,0.629150391,0.0848388672,15.8081055,49.4995117,57.3120117
878,4390000,4690000,878,-6405,5309,662,285,805,933,-0.781860352,0.648071289,0.0808105469,17.3950195,49.1333008,56.9458008
879,4395008,4695008,879,-6523,5478,676,280,786,919,-0.796264648,0.668701172,0.0825195312,17.0898438,47.9736328,56.0913086
880,4400000,4700000,880,-6558,5587,671,256,763,892,-0.800537109,0.682006836,0.0819091797,15.625,46.5698242,54.4433594
881,4405008,4705008,881,-6483,5659,668,229,743,859,-0.791381836,0.690795898,0.0815429688,13.9770508,45.3491211,52.4291992
882,4410000,4710000,882,-6334,5721,703,192,723,828,-0.773193359,0.698364258,0.0858154297,11.71875,44.128418,50.5371094
883,4415008,4715008,883,-6161,5783,763,138,710,799,-0.752075195,0.705932617,0.0931396484,8.42285156,43.3349609,48.7670898
884,4420000,4720000,884,-5984,5855,789,75,709,769,-0.73046875,0.71472168,0.0963134766,4.57763672,43.2739258,46.9360352
885,4425008,4725008,885,-5828,5908,778,15,708,744,-0.711425781,0.721191406,0.0949707031,0.915527344,43.2128906,45.4101562
886,4430000,4730000,886,-5673,5936,781,-40,710,721,-0.692504883,0.724609375,0.0953369141,-2.44140625,43.3349609,44.0063477
887,4435008,4735008,887,-5528,5963,778,-94,721,700,-0.674804688,0.727905273,0.0949707031,-5.73730469,44.0063477,42.7246094
888,4440000,4740000,888,-5426,5956,747,-141,734,681,-0.662353516,0.727050781,0.0911865234,-8.60595703,44.7998047,41.5649414
889,4445008,4745008,889,-5400,5936,770,-182,739,671,-0.659179688,0.724609375,0.0939941406,-11.1083984,45.1049805,40.9545898
890,4450000,4750000,890,-5449,5919,852,-231,733,672,-0.665161133,0.72253418,0.104003906,-14.0991211,44.7387695,41.015625
891,4455008,4755008,891,-5521,5883,977,-291,726,673,-0.673950195,0.718139648,0.119262695,-17.7612305,44.3115234,41.0766602
892,4460000,4760000,892,-5600,5835,1105,-352,727,669,-0.68359375,0.712280273,0.134887695,-21.484375,44.3725586,40.8325195
893,4465008,4765008,893,-5689,5750,1196,-395,730,665,-0.694458008,0.701904297,0.145996094,-24.1088867,44.5556641,40.5883789
894,4470000,4770000,894,-5836,5615,1305,-410,724,658,-0.712402344,0.685424805,0.159301758,-25.0244141,44.1894531,40.1611328
895,4475008,4775008,895,-6050,5490,1393,-400,710,645,-0.738525391,0.670166016,0.170043945,-24.4140625,43.3349609,39.3676758
896,4480000,4780000,896,-6290,5397,1480,-368,687,629,-0.767822266,0.658813477,0.180664062,-22.4609375,41.9311523,38.3911133
897,4485008,4785008,897,-6498,5330,1600,-330,660,612,-0.793212891,0.650634766,0.1953125,-20.1416016,40.2832031,37.3535156
898,4490000,4790000,898,-6647,5342,1701,-307,625,598,-0.811401367,0.652099609,0.207641602,-18.737793,38.1469727,36.4990234
899,4495008,4795008,899,-6694,5447,1694,-298,581,599,-0.817138672,0.664916992,0.206787109,-18.1884766,35.4614258,36.5600586
900,4500000,4800000,900,-6630,5625,1538,-291,540,618,-0.809326172,0.686645508,0.187744141,-17.7612305,32.9589844,37.7197266
901,4505008,4805008,901,-6440,5867,1218,-269,507,648,-0.786132812,0.716186523,0.148681641,-16.418457,30.9448242,39.5507812
902,4510000,4810000,902,-6116,6149,817,-227,485,690,-0.746582031,0.750610352,0.0997314453,-13.8549805,29.6020508,42.1142578
903,4515008,4815008,903,-5718,6450,451,-187,480,733,-0.697998047,0.787353516,0.0550537109,-11.4135742,29.296875,44.7387695
904,4520000,4820000,904,-5371,6736,63,-155,508,772,-0.655639648,0.822265625,0.00769042969,-9.46044922,31.0058594,47.1191406
905,4525008,4825008,905,-5119,6982,-333,-132,580,800,-0.62487793,0.852294922,-0.0406494141,-8.05664062,35.4003906,48.828125
906,4530000,4830000,906,-4888,7203,-698,-121,691,813,-0.596679688,0.879272461,-0.0852050781,-7.38525391,42.175293,49.621582
907,4535008,4835008,907,-4696,7386,-984,-135,820,816,-0.573242188,0.901611328,-0.120117188,-8.23974609,50.0488281,49.8046875
908,4540000,4840000,908,-4633,7461,-1165,-187,938,808,-0.565551758,0.910766602,-0.142211914,-11.4135742,57.2509766,49.3164062
909,4545008,4845008,909,-4667,7406,-1275,-260,1027,778,-0.569702148,0.904052734,-0.155639648,-15.8691406,62.6831055,47.4853516
910,4550000,4850000,910,-4785,7264,-1279,-335,1078,739,-0.584106445,0.88671875,-0.15612793,-20.4467773,65.7958984,45.1049805
911,4555008,4855008,911,-4994,7033,-1119,-397,1090,696,-0.609619141,0.858520508,-0.13659668,-24.230957,66.5283203,42.4804688
912,4560000,4860000,912,-5187,6680,-839,-428,1078,656,-0.633178711,0.815429688,-0.102416992,-26.1230469,65.7958984,40.0390625
913,4565008,4865008,913,-5348,6241,-571,-410,1044,627,-0.652832031,0.76184082,-0.0697021484,-25.0244141,63.7207031,38.269043
914,4570000,4870000,914,-5596,5830,-343,-325,981,611,-0.683105469,0.711669922,-0.0418701172,-19.8364258,59.8754883,37.2924805
915,4575008,4875008,915,-5954,5466,-88,-180,881,593,-0.726806641,0.667236328,-0.0107421875,-10.9863281,53.7719727,36.1938477
916,4580000,4880000,916,-6310,5118,226,-4,752,572,-0.770263672,0.624755859,0.0275878906,-0.244140625,45.8984375,34.9121094
917,4585008,4885008,917,-6636,4822,527,179,612,550,-0.810058594,0.588623047,0.0643310547,10.925293,37.3535156,33.5693359
918,4590000,4890000,918,-6875,4569,800,364,467,518,-0.839233398,0.557739258,0.09765625,22.2167969,28.503418,31.6162109
919,4595008,4895008,919,-6935,4382,1080,534,335,477,-0.846557617,0.534912109,0.131835938,32.5927734,20.4467773,29.1137695
920,4600000,4900000,920,-6827,4343,1296,664,252,435,-0.833374023,0.530151367,0.158203125,40.5273438,15.3808594,26.550293
921,4605008,4905008,921,-6642,4459,1366,737,236,395,-0.810791016,0.544311523,0.166748047,44.9829102,14.4042969,24.1088867
922,4610000,4910000,922,-6464,4676,1241,753,262,358,-0.7890625,0.570800781,0.151489258,45.9594727,15.9912109,21.8505859
923,4615008,4915008,923,-6260,4958,978,736,290,324,-0.764160156,0.605224609,0.119384766,44.921875,17.7001953,19.7753906
924,4620000,4920000,924,-5998,5286,728,701,314,299,-0.732177734,0.645263672,0.0888671875,42.7856445,19.1650391,18.2495117
925,4625008,4925008,925,-5730,5622,534,645,345,288,-0.699462891,0.686279297,0.0651855469,39.3676758,21.0571289,17.578125
926,4630000,4930000,926,-5486,5935,387,572,380,288,-0.669677734,0.724487305,0.0472412109,34.9121094,23.1933594,17.578125
927,4635008,4935008,927,-5282,6201,272,489,412,294,-0.644775391,0.756958008,0.033203125,29.8461914,25.1464844,17.9443359
928,4640000,4940000,928,-5164,6419,210,402,445,302,-0.630371094,0.783569336,0.0256347656,24.5361328,27.1606445,18.4326172
929,4645008,4945008,929,-5132,6581,213,316,479,305,-0.626464844,0.803344727,0.0260009766,19.2871094,29.2358398,18.6157227
930,4650000,4950000,930,-5159,6681,253,234,497,301,-0.629760742,0.815551758,0.0308837891,14.2822266,30.3344727,18.371582
931,4655008,4955008,931,-5242,6775,324,164,488,295,-0.639892578,0.827026367,0.0395507812,10.0097656,29.7851562,18.0053711
932,4660000,4960000,932,-5383,6867,419,101,460,286,-0.657104492,0.838256836,0.0511474609,6.16455078,28.0761719,17.4560547
933,4665008,4965008,933,-5554,6907,525,47,424,266,-0.677978516,0.843139648,0.0640869141,2.86865234,25.8789062,16.2353516
934,4670000,4970000,934,-5689,6877,621,4,384,234,-0.694458008,0.839477539,0.0758056641,0.244140625,23.4375,14.2822266
935,4675008,4975008,935,-5741,6796,699,-31,346,201,-0.700805664,0.829589844,0.0853271484,-1.89208984,21.1181641,12.2680664
936,4680000,4980000,936,-5702,6708,794,-55,313,170,-0.696044922,0.818847656,0.0969238281,-3.35693359,19.1040039,10.3759766
937,4685008,4985008,937,-5582,6643,881,-79,287,143,-0.681396484,0.810913086,0.107543945,-4.82177734,17.5170898,8.72802734
938,4690000,4990000,938,-5413,6594,896,-95,276,117,-0.660766602,0.804931641,0.109375,-5.79833984,16.8457031,7.14111328
939,4695008,4995008,939,-5251,6559,833,-92,281,90,-0.640991211,0.80065918,0.10168457,-5.61523438,17.1508789,5.49316406
940,4700000,5000000,940,-5128,6544,682,-73,303,64,-0.625976562,0.798828125,0.0832519531,-4.45556641,18.4936523,3.90625
941,4705008,5005008,941,-5040,6525,470,-44,329,40,-0.615234375,0.796508789,0.0573730469,-2.68554688,20.0805664,2.44140625
942,4710000,5010000,942,-4980,6479,227,-12,358,20,-0.607910156,0.790893555,0.0277099609,-0.732421875,21.8505859,1.22070312
943,4715008,5015008,943,-4973,6423,-37,20,382,7,-0.607055664,0.784057617,-0.00451660156,1.22070312,23.3154297,0.427246094
944,4720000,5020000,944,-5049,6393,-287,59,397,1,-0.616333008,0.780395508,-0.0350341797,3.60107422,24.230957,0.0610351562
945,4725008,5025008,945,-5175,6356,-478,100,401,0,-0.631713867,0.775878906,-0.0583496094,6.10351562,24.4750977,0
946,4730000,5030000,946,-5287,6286,-624,138,390,1,-0.645385742,0.767333984,-0.076171875,8.42285156,23.8037109,0.0610351562
947,4735008,5035008,947,-5363,6180,-728,176,362,2,-0.654663086,0.754394531,-0.0888671875,10.7421875,22.0947266,0.122070312
948,4740000,5040000,948,-5410,6033,-759,192,317,-3,-0.660400391,0.736450195,-0.0926513672,11.71875,19.3481445,-0.183105469
949,4745008,5045008,949,-5444,5861,-742,173,266,-11,-0.664550781,0.715454102,-0.0905761719,10.559082,16.2353516,-0.671386719
950,4750000,5050000,950,-5461,5646,-713,125,218,-27,-0.666625977,0.689208984,-0.0870361328,7.62939453,13.3056641,-1.64794922
951,4755008,5055008,951,-5466,5388,-676,78,174,-47,-0.667236328,0.657714844,-0.0825195312,4.76074219,10.6201172,-2.86865234
952,4760000,5060000,952,-5505,5194,-565,50,127,-62,-0.67199707,0.634033203,-0.0689697266,3.05175781,7.75146484,-3.78417969
953,4765008,5065008,953,-5600,5157,-359,31,72,-79,-0.68359375,0.629516602,-0.0438232422,1.89208984,4.39453125,-4.82177734
954,4770000,5070000,954,-5672,5158,-139,12,2,-92,-0.692382812,0.629638672,-0.0169677734,0.732421875,0.122070312,-5.61523438
955,4775008,5075008,955,-5726,5137,65,6,-68,-91,-0.698974609,0.627075195,0.00793457031,0.366210938,-4.15039062,-5.55419922
956,4780000,5080000,956,-5792,5241,257,16,-133,-90,-0.70703125,0.639770508,0.0313720703,0.9765625,-8.11767578,-5.49316406
957,4785008,5085008,957,-5796,5428,409,23,-196,-97,-0.707519531,0.662597656,0.0499267578,1.40380859,-11.9628906,-5.92041016
958,4790000,5090000,958,-5750,5569,488,26,-241,-106,-0.701904297,0.67980957,0.0595703125,1.58691406,-14.7094727,-6.46972656
959,4795008,5095008,959,-5689,5645,513,28,-273,-120,-0.694458008,0.689086914,0.0626220703,1.70898438,-16.6625977,-7.32421875
960,4800000,5100000,960,-5647,5653,536,27,-299,-142,-0.689331055,0.690063477,0.0654296875,1.64794922,-18.2495117,-8.66699219
961,4805008,5105008,961,-5637,5615,546,24,-319,-169,-0.688110352,0.685424805,0.0666503906,1.46484375,-19.4702148,-10.3149414
962,4810000,5110000,962,-5642,5577,535,23,-339,-200,-0.688720703,0.680786133,0.0653076172,1.40380859,-20.690918,-12.2070312
963,4815008,5115008,963,-5653,5551,496,27,-361,-234,-0.690063477,0.677612305,0.060546875,1.64794922,-22.0336914,-14.2822266
964,4820000,5120000,964,-5664,5538,435,38,-384,-269,-0.69140625,0.676025391,0.0531005859,2.31933594,-23.4375,-16.418457
965,4825008,5125008,965,-5687,5539,376,53,-408,-303,-0.694213867,0.676147461,0.0458984375,3.23486328,-24.9023438,-18.4936523
966,4830000,5130000,966,-5732,5548,336,68,-432,-336,-0.699707031,0.677246094,0.041015625,4.15039062,-26.3671875,-20.5078125
967,4835008,5135008,967,-5794,5566,325,84,-456,-368,-0.707275391,0.679443359,0.0396728516,5.12695312,-27.8320312,-22.4609375
968,4840000,5140000,968,-5853,5564,320,98,-483,-400,-0.714477539,0.679199219,0.0390625,5.98144531,-29.4799805,-24.4140625
969,4845008,5145008,969,-5904,5560,314,109,-515,-432,-0.720703125,0.678710938,0.0383300781,6.65283203,-31.4331055,-26.3671875
