sample_index,offset_us,timestamp_us,sequence,accel_x_raw,accel_y_raw,accel_z_raw,gyro_x_raw,gyro_y_raw,gyro_z_raw,accel_x_g,accel_y_g,accel_z_g,gyro_x_dps,gyro_y_dps,gyro_z_dps
0,0,300000,0,1088,8464,5473,755,-2055,2036,0.1328125,1.03320312,0.66809082,46.081543,-125.427246,124.267578
1,4992,304992,1,1182,7976,5101,763,-2051,2071,0.144287109,0.973632812,0.622680664,46.5698242,-125.183105,126.403809
2,10000,310000,2,1284,7594,4666,806,-2041,2109,0.156738281,0.927001953,0.569580078,49.1943359,-124.572754,128.723145
3,14992,314992,3,1359,7298,4212,870,-2028,2149,0.165893555,0.890869141,0.514160156,53.1005859,-123.779297,131.164551
4,20000,320000,4,1433,7046,3745,952,-2015,2184,0.174926758,0.860107422,0.45715332,58.1054688,-122.98584,133.300781
5,24992,324992,5,1560,6833,3286,1054,-2000,2205,0.190429688,0.834106445,0.401123047,64.3310547,-122.070312,134.58252
6,30000,330000,6,1732,6683,2854,1172,-1981,2217,0.211425781,0.815795898,0.348388672,71.5332031,-120.910645,135.314941
7,34992,334992,7,1893,6594,2437,1299,-1960,2222,0.231079102,0.804931641,0.297485352,79.284668,-119.628906,135.620117
8,40000,340000,8,2045,6536,2055,1424,-1943,2223,0.249633789,0.797851562,0.250854492,86.9140625,-118.591309,135.681152
9,44992,344992,9,2203,6546,1778,1546,-1924,2219,0.268920898,0.799072266,0.217041016,94.3603516,-117.431641,135.437012
10,50000,350000,10,2367,6758,1757,1651,-1893,2201,0.28894043,0.824951172,0.214477539,100.769043,-115.539551,134.338379
11,54992,354992,11,2528,7196,2041,1708,-1842,2169,0.30859375,0.878417969,0.249145508,104.248047,-112.426758,132.385254
12,60000,360000,12,2684,7790,2528,1706,-1790,2139,0.327636719,0.950927734,0.30859375,104.125977,-109.25293,130.554199
13,64992,364992,13,2864,8406,3121,1651,-1771,2127,0.349609375,1.02612305,0.380981445,100.769043,-108.093262,129.821777
14,70000,370000,14,3074,8942,3710,1548,-1785,2138,0.375244141,1.09155273,0.452880859,94.4824219,-108.947754,130.493164
15,74992,374992,15,3249,9424,4301,1400,-1815,2169,0.396606445,1.15039062,0.525024414,85.4492188,-110.778809,132.385254
16,80000,380000,16,3349,9934,4895,1203,-1846,2196,0.408813477,1.21264648,0.59753418,73.425293,-112.670898,134.033203
17,84992,384992,17,3416,10460,5449,970,-1879,2214,0.416992188,1.27685547,0.665161133,59.2041016,-114.685059,135.131836
18,90000,390000,18,3446,10864,5861,716,-1925,2243,0.420654297,1.32617188,0.715454102,43.7011719,-117.492676,136.901855
19,94992,394992,19,3489,11109,5950,479,-2000,2280,0.42590332,1.3560791,0.726318359,29.2358398,-122.070312,139.160156
20,100000,400000,20,3648,11070,5805,293,-2079,2320,0.4453125,1.35131836,0.708618164,17.8833008,-126.89209,141.601562
21,104992,404992,21,3817,10668,5495,132,-2141,2363,0.465942383,1.30224609,0.670776367,8.05664062,-130.67627,144.226074
22,110000,410000,22,3931,10093,4945,-2,-2182,2403,0.479858398,1.23205566,0.603637695,-0.122070312,-133.178711,146.66748
23,114992,414992,23,4037,9481,4293,-75,-2197,2433,0.492797852,1.15734863,0.524047852,-4.57763672,-134.094238,148.498535
24,120000,420000,24,4154,8864,3671,-79,-2188,2445,0.507080078,1.08203125,0.448120117,-4.82177734,-133.544922,149.230957
25,124992,424992,25,4295,8284,3019,-22,-2163,2441,0.524291992,1.01123047,0.368530273,-1.34277344,-132.019043,148.986816
26,130000,430000,26,4484,7779,2345,99,-2125,2420,0.547363281,0.949584961,0.286254883,6.04248047,-129.699707,147.705078
27,134992,434992,27,4729,7389,1738,283,-2072,2386,0.577270508,0.901977539,0.212158203,17.2729492,-126.464844,145.629883
28,140000,440000,28,4947,7119,1266,506,-1996,2334,0.603881836,0.869018555,0.154541016,30.8837891,-121.826172,142.456055
29,144992,444992,29,5124,6945,922,753,-1891,2261,0.625488281,0.84777832,0.112548828,45.9594727,-115.41748,138.000488
30,150000,450000,30,5279,6891,722,1003,-1764,2159,0.64440918,0.841186523,0.0881347656,61.2182617,-107.666016,131.774902
31,154992,454992,31,5399,6993,628,1238,-1622,2040,0.659057617,0.853637695,0.0766601562,75.5615234,-98.9990234,124.511719
32,160000,460000,32,5478,7244,681,1442,-1466,1921,0.668701172,0.884277344,0.0831298828,88.0126953,-89.4775391,117.248535
33,164992,464992,33,5500,7562,935,1594,-1309,1810,0.671386719,0.923095703,0.114135742,97.2900391,-79.8950195,110.473633
34,170000,470000,34,5442,7901,1315,1692,-1152,1715,0.664306641,0.964477539,0.160522461,103.271484,-70.3125,104.675293
35,174992,474992,35,5336,8257,1746,1745,-1002,1637,0.651367188,1.00793457,0.213134766,106.506348,-61.1572266,99.9145508
36,180000,480000,36,5209,8636,2184,1765,-880,1588,0.635864258,1.05419922,0.266601562,107.727051,-53.7109375,96.9238281
37,184992,484992,37,5029,8988,2659,1748,-800,1565,0.613891602,1.09716797,0.324584961,106.689453,-48.828125,95.5200195
38,190000,490000,38,4820,9290,3067,1691,-768,1556,0.588378906,1.1340332,0.374389648,103.210449,-46.875,94.9707031
39,194992,494992,39,4637,9604,3300,1597,-774,1553,0.566040039,1.17236328,0.402832031,97.4731445,-47.2412109,94.7875977
40,200000,500000,40,4523,9917,3334,1473,-796,1547,0.552124023,1.21057129,0.406982422,89.9047852,-48.5839844,94.4213867
41,204992,504992,41,4478,10178,3253,1322,-813,1540,0.546630859,1.24243164,0.397094727,80.6884766,-49.621582,93.9941406
42,210000,510000,42,4439,10315,3110,1146,-820,1545,0.541870117,1.25915527,0.379638672,69.9462891,-50.0488281,94.2993164
43,214992,514992,43,4331,10255,2936,968,-818,1561,0.528686523,1.25183105,0.358398438,59.0820312,-49.9267578,95.2758789
44,220000,520000,44,4152,10059,2722,804,-818,1565,0.506835938,1.22790527,0.332275391,49.0722656,-49.9267578,95.5200195
45,224992,524992,45,3987,9819,2442,666,-834,1551,0.486694336,1.1986084,0.298095703,40.6494141,-50.9033203,94.6655273
46,230000,530000,46,3888,9575,2206,550,-856,1522,0.474609375,1.16882324,0.269287109,33.5693359,-52.2460938,92.8955078
47,234992,534992,47,3864,9373,1985,445,-866,1479,0.471679688,1.14416504,0.24230957,27.1606445,-52.8564453,90.2709961
48,240000,540000,48,3902,9182,1729,361,-861,1428,0.476318359,1.12084961,0.21105957,22.0336914,-52.5512695,87.1582031
49,244992,544992,49,3932,8964,1508,307,-845,1371,0.479980469,1.09423828,0.184082031,18.737793,-51.574707,83.6791992
50,250000,550000,50,3954,8698,1352,280,-813,1307,0.482666016,1.06176758,0.165039062,17.0898438,-49.621582,79.7729492
51,254992,554992,51,3900,8471,1272,264,-762,1233,0.476074219,1.03405762,0.155273438,16.1132812,-46.5087891,75.2563477
52,260000,560000,52,3814,8325,1214,240,-704,1142,0.465576172,1.01623535,0.148193359,14.6484375,-42.96875,69.7021484
53,264992,564992,53,3822,8223,1145,222,-645,1041,0.466552734,1.00378418,0.139770508,13.5498047,-39.3676758,63.5375977
54,270000,570000,54,3892,8165,1139,218,-582,944,0.475097656,0.996704102,0.139038086,13.3056641,-35.5224609,57.6171875
55,274992,574992,55,3937,8120,1155,221,-517,854,0.48059082,0.991210938,0.140991211,13.4887695,-31.5551758,52.1240234
56,280000,580000,56,3929,8077,1150,225,-459,769,0.479614258,0.985961914,0.140380859,13.7329102,-28.0151367,46.9360352
57,284992,584992,57,3922,8019,1154,234,-406,689,0.478759766,0.978881836,0.140869141,14.2822266,-24.7802734,42.0532227
58,290000,590000,58,3907,7956,1114,249,-355,613,0.476928711,0.971191406,0.135986328,15.1977539,-21.6674805,37.4145508
59,294992,594992,59,3947,7910,1026,273,-314,537,0.481811523,0.965576172,0.125244141,16.6625977,-19.1650391,32.7758789
60,300000,600000,60,4081,7893,917,299,-284,464,0.498168945,0.963500977,0.111938477,18.2495117,-17.3339844,28.3203125
61,304992,604992,61,4230,7884,803,326,-250,401,0.516357422,0.962402344,0.0980224609,19.8974609,-15.2587891,24.4750977
62,310000,610000,62,4349,7873,795,345,-203,344,0.530883789,0.96105957,0.0970458984,21.0571289,-12.3901367,20.9960938
63,314992,614992,63,4428,7925,826,343,-156,292,0.540527344,0.967407227,0.100830078,20.9350586,-9.52148438,17.8222656
64,320000,620000,64,4513,8038,806,329,-119,241,0.55090332,0.981201172,0.0983886719,20.0805664,-7.26318359,14.7094727
65,324992,624992,65,4617,8146,823,317,-90,199,0.563598633,0.994384766,0.100463867,19.3481445,-5.49316406,12.1459961
66,330000,630000,66,4674,8237,880,308,-63,166,0.570556641,1.00549316,0.107421875,18.7988281,-3.84521484,10.1318359
67,334992,634992,67,4677,8315,940,298,-41,137,0.570922852,1.01501465,0.114746094,18.1884766,-2.50244141,8.36181641
68,340000,640000,68,4640,8376,984,283,-25,114,0.56640625,1.02246094,0.120117188,17.2729492,-1.52587891,6.95800781
69,344992,644992,69,4589,8379,1018,263,-17,99,0.560180664,1.02282715,0.124267578,16.0522461,-1.03759766,6.04248047
70,350000,650000,70,4548,8312,1044,239,-12,88,0.555175781,1.01464844,0.127441406,14.5874023,-0.732421875,5.37109375
71,354992,654992,71,4513,8230,1058,215,-5,75,0.55090332,1.00463867,0.129150391,13.1225586,-0.305175781,4.57763672
72,360000,660000,72,4474,8171,1039,189,2,56,0.546142578,0.997436523,0.126831055,11.5356445,0.122070312,3.41796875
73,364992,664992,73,4455,8119,984,164,7,37,0.543823242,0.991088867,0.120117188,10.0097656,0.427246094,2.25830078
74,370000,670000,74,4466,8036,934,145,13,19,0.545166016,0.980957031,0.114013672,8.85009766,0.793457031,1.15966797
75,374992,674992,75,4498,7913,881,133,23,1,0.549072266,0.965942383,0.107543945,8.11767578,1.40380859,0.0610351562
76,380000,680000,76,4514,7774,821,134,40,-15,0.551025391,0.948974609,0.100219727,8.17871094,2.44140625,-0.915527344
77,384992,684992,77,4490,7669,772,153,60,-32,0.548095703,0.936157227,0.0942382812,9.33837891,3.66210938,-1.953125
78,390000,690000,78,4420,7646,711,182,75,-55,0.539550781,0.933349609,0.0867919922,11.1083984,4.57763672,-3.35693359
79,394992,694992,79,4348,7681,630,211,89,-76,0.530761719,0.93762207,0.0769042969,12.878418,5.43212891,-4.63867188
80,400000,700000,80,4281,7708,584,237,109,-94,0.522583008,0.940917969,0.0712890625,14.465332,6.65283203,-5.73730469
81,404992,704992,81,4172,7740,581,253,135,-116,0.509277344,0.944824219,0.0709228516,15.4418945,8.23974609,-7.08007812
82,410000,710000,82,4044,7792,583,258,153,-143,0.493652344,0.951171875,0.0711669922,15.7470703,9.33837891,-8.72802734
83,414992,714992,83,3936,7862,587,254,160,-172,0.48046875,0.959716797,0.0716552734,15.5029297,9.765625,-10.4980469
84,420000,720000,84,3885,7917,602,244,161,-200,0.474243164,0.966430664,0.0734863281,14.8925781,9.82666016,-12.2070312
85,424992,724992,85,3877,7922,608,227,163,-227,0.473266602,0.967041016,0.07421875,13.8549805,9.94873047,-13.8549805
86,430000,730000,86,3893,7891,587,206,164,-252,0.475219727,0.963256836,0.0716552734,12.5732422,10.0097656,-15.3808594
87,434992,734992,87,3937,7848,543,185,162,-277,0.48059082,0.958007812,0.0662841797,11.2915039,9.88769531,-16.9067383
88,440000,740000,88,4023,7811,507,174,166,-303,0.491088867,0.953491211,0.0618896484,10.6201172,10.1318359,-18.4936523
89,444992,744992,89,4151,7787,497,173,177,-326,0.506713867,0.950561523,0.0606689453,10.559082,10.8032227,-19.8974609
90,450000,750000,90,4281,7805,481,182,194,-350,0.522583008,0.952758789,0.0587158203,11.1083984,11.8408203,-21.3623047
91,454992,754992,91,4386,7860,458,199,212,-373,0.535400391,0.959472656,0.0559082031,12.1459961,12.9394531,-22.7661133
92,460000,760000,92,4431,7909,435,222,229,-392,0.540893555,0.965454102,0.0531005859,13.5498047,13.9770508,-23.9257812
93,464992,764992,93,4391,7944,428,242,247,-406,0.536010742,0.969726562,0.0522460938,14.7705078,15.0756836,-24.7802734
94,470000,770000,94,4276,7974,421,256,261,-420,0.521972656,0.973388672,0.0513916016,15.625,15.9301758,-25.6347656
95,474992,774992,95,4142,8004,402,264,269,-436,0.505615234,0.977050781,0.0490722656,16.1132812,16.418457,-26.6113281
96,480000,780000,96,4037,8023,421,264,274,-455,0.492797852,0.979370117,0.0513916016,16.1132812,16.7236328,-27.7709961
97,484992,784992,97,3971,8050,485,244,277,-478,0.484741211,0.982666016,0.0592041016,14.8925781,16.9067383,-29.1748047
98,490000,790000,98,3962,8080,576,204,283,-508,0.483642578,0.986328125,0.0703125,12.4511719,17.2729492,-31.0058594
99,494992,794992,99,3975,8096,684,155,297,-543,0.485229492,0.98828125,0.0834960938,9.46044922,18.1274414,-33.1420898
100,500000,800000,100,3958,8106,772,108,312,-583,0.483154297,0.989501953,0.0942382812,6.59179688,19.0429688,-35.5834961
101,504992,804992,101,3930,8117,825,66,323,-626,0.479736328,0.990844727,0.100708008,4.02832031,19.7143555,-38.2080078
102,510000,810000,102,3930,8138,842,27,328,-672,0.479736328,0.993408203,0.102783203,1.64794922,20.0195312,-41.015625
103,514992,814992,103,3980,8152,821,-9,336,-717,0.485839844,0.995117188,0.100219727,-0.549316406,20.5078125,-43.762207
104,520000,820000,104,4078,8131,786,-43,351,-758,0.497802734,0.992553711,0.0959472656,-2.62451172,21.4233398,-46.2646484
105,524992,824992,105,4191,8090,763,-72,373,-799,0.51159668,0.987548828,0.0931396484,-4.39453125,22.7661133,-48.7670898
106,530000,830000,106,4307,8012,769,-95,407,-842,0.525756836,0.978027344,0.0938720703,-5.79833984,24.8413086,-51.3916016
107,534992,834992,107,4389,7882,793,-107,450,-885,0.535766602,0.962158203,0.0968017578,-6.53076172,27.4658203,-54.0161133
108,540000,840000,108,4409,7701,833,-104,497,-928,0.538208008,0.940063477,0.10168457,-6.34765625,30.3344727,-56.640625
109,544992,844992,109,4383,7499,876,-81,548,-974,0.53503418,0.915405273,0.106933594,-4.94384766,33.4472656,-59.4482422
110,550000,850000,110,4329,7359,909,-35,603,-1025,0.528442383,0.89831543,0.110961914,-2.13623047,36.8041992,-62.5610352
111,554992,854992,111,4312,7296,950,22,658,-1080,0.526367188,0.890625,0.115966797,1.34277344,40.1611328,-65.9179688
112,560000,860000,112,4361,7273,992,74,718,-1139,0.532348633,0.887817383,0.12109375,4.51660156,43.8232422,-69.519043
113,564992,864992,113,4436,7291,1022,121,782,-1200,0.541503906,0.890014648,0.124755859,7.38525391,47.7294922,-73.2421875
114,570000,870000,114,4504,7368,1055,154,845,-1266,0.549804688,0.899414062,0.12878418,9.39941406,51.574707,-77.2705078
115,574992,874992,115,4537,7460,1077,166,909,-1339,0.553833008,0.910644531,0.131469727,10.1318359,55.480957,-81.7260742
116,580000,880000,116,4515,7562,1071,158,973,-1418,0.551147461,0.923095703,0.130737305,9.64355469,59.387207,-86.5478516
117,584992,884992,117,4465,7709,1095,127,1029,-1501,0.545043945,0.941040039,0.133666992,7.75146484,62.8051758,-91.6137695
118,590000,890000,118,4418,7865,1157,71,1080,-1582,0.539306641,0.960083008,0.141235352,4.33349609,65.9179688,-96.5576172
119,594992,894992,119,4407,8032,1264,-3,1128,-1659,0.537963867,0.98046875,0.154296875,-0.183105469,68.8476562,-101.257324
120,600000,900000,120,4457,8258,1459,-92,1172,-1733,0.544067383,1.00805664,0.178100586,-5.61523438,71.5332031,-105.773926
121,604992,904992,121,4532,8525,1705,-191,1217,-1799,0.553222656,1.04064941,0.208129883,-11.6577148,74.2797852,-109.802246
122,610000,910000,122,4586,8806,1968,-295,1258,-1848,0.559814453,1.07495117,0.240234375,-18.0053711,76.7822266,-112.792969
123,614992,914992,123,4583,9114,2222,-406,1284,-1882,0.559448242,1.11254883,0.271240234,-24.7802734,78.3691406,-114.868164
124,620000,920000,124,4516,9439,2477,-525,1296,-1909,0.551269531,1.15222168,0.302368164,-32.043457,79.1015625,-116.516113
125,624992,924992,125,4416,9740,2738,-659,1306,-1932,0.5390625,1.18896484,0.334228516,-40.222168,79.7119141,-117.919922
126,630000,930000,126,4316,9972,2937,-818,1321,-1958,0.526855469,1.21728516,0.358520508,-49.9267578,80.6274414,-119.506836
127,634992,934992,127,4292,10084,3053,-993,1332,-1988,0.523925781,1.23095703,0.372680664,-60.6079102,81.2988281,-121.337891
128,640000,940000,128,4319,10049,3109,-1167,1335,-2010,0.52722168,1.22668457,0.379516602,-71.2280273,81.4819336,-122.680664
129,644992,944992,129,4344,9911,3098,-1334,1332,-2031,0.530273438,1.20983887,0.378173828,-81.4208984,81.2988281,-123.962402
130,650000,950000,130,4371,9719,2986,-1485,1324,-2055,0.533569336,1.18640137,0.364501953,-90.637207,80.8105469,-125.427246
131,654992,954992,131,4438,9485,2788,-1602,1325,-2076,0.541748047,1.15783691,0.340332031,-97.7783203,80.871582,-126.708984
132,660000,960000,132,4529,9223,2593,-1676,1341,-2092,0.552856445,1.12585449,0.31652832,-102.294922,81.8481445,-127.685547
133,664992,964992,133,4597,8924,2415,-1713,1369,-2103,0.561157227,1.08935547,0.294799805,-104.553223,83.5571289,-128.356934
134,670000,970000,134,4634,8591,2232,-1703,1401,-2103,0.565673828,1.04870605,0.272460938,-103.942871,85.5102539,-128.356934
135,674992,974992,135,4584,8259,2024,-1651,1432,-2098,0.559570312,1.00817871,0.247070312,-100.769043,87.4023438,-128.051758
136,680000,980000,136,4451,7936,1777,-1557,1466,-2083,0.543334961,0.96875,0.216918945,-95.0317383,89.4775391,-127.13623
137,684992,984992,137,4240,7642,1625,-1426,1515,-2056,0.517578125,0.932861328,0.198364258,-87.0361328,92.4682617,-125.488281
138,690000,990000,138,3958,7456,1621,-1285,1578,-2026,0.483154297,0.91015625,0.197875977,-78.4301758,96.3134766,-123.657227
139,694992,994992,139,3592,7450,1738,-1154,1637,-2007,0.438476562,0.909423828,0.212158203,-70.4345703,99.9145508,-122.497559
140,700000,1000000,140,3224,7581,1922,-1036,1684,-1995,0.393554688,0.925415039,0.234619141,-63.2324219,102.783203,-121.765137
141,704992,1004992,141,2917,7802,2160,-918,1720,-1975,0.356079102,0.952392578,0.263671875,-56.0302734,104.980469,-120.544434
142,710000,1010000,142,2605,8074,2484,-812,1742,-1952,0.317993164,0.985595703,0.303222656,-49.5605469,106.323242,-119.140625
143,714992,1014992,143,2310,8245,2774,-741,1742,-1930,0.281982422,1.00646973,0.338623047,-45.2270508,106.323242,-117.797852
144,720000,1020000,144,2062,8223,2921,-696,1720,-1902,0.251708984,1.00378418,0.356567383,-42.4804688,104.980469,-116.088867
145,724992,1024992,145,1806,8103,2985,-665,1686,-1869,0.220458984,0.989135742,0.364379883,-40.5883789,102.905273,-114.074707
146,730000,1030000,146,1516,8055,3063,-646,1654,-1850,0.185058594,0.983276367,0.373901367,-39.4287109,100.952148,-112.915039
147,734992,1034992,147,1261,8193,3195,-637,1636,-1857,0.153930664,1.00012207,0.390014648,-38.8793945,99.8535156,-113.342285
148,740000,1040000,148,1114,8492,3361,-641,1622,-1878,0.135986328,1.03662109,0.41027832,-39.1235352,98.9990234,-114.624023
149,744992,1044992,149,1059,8775,3490,-657,1600,-1895,0.129272461,1.07116699,0.426025391,-40.1000977,97.65625,-115.661621
150,750000,1050000,150,996,8916,3521,-689,1561,-1899,0.121582031,1.08837891,0.42980957,-42.0532227,95.2758789,-115.905762
151,754992,1054992,151,913,8982,3451,-731,1515,-1889,0.111450195,1.09643555,0.421264648,-44.6166992,92.4682617,-115.29541
152,760000,1060000,152,799,9065,3434,-777,1472,-1869,0.0975341797,1.10656738,0.419189453,-47.4243164,89.84375,-114.074707
153,764992,1064992,153,655,9145,3516,-839,1436,-1857,0.0799560547,1.11633301,0.429199219,-51.2084961,87.6464844,-113.342285
154,770000,1070000,154,624,9185,3571,-903,1404,-1850,0.076171875,1.12121582,0.435913086,-55.1147461,85.6933594,-112.915039
155,774992,1074992,155,663,9179,3591,-959,1373,-1836,0.0809326172,1.1204834,0.438354492,-58.5327148,83.8012695,-112.060547
156,780000,1080000,156,643,9099,3571,-1016,1346,-1818,0.0784912109,1.11071777,0.435913086,-62.0117188,82.1533203,-110.961914
157,784992,1084992,157,606,8932,3513,-1068,1336,-1802,0.0739746094,1.09033203,0.428833008,-65.1855469,81.5429688,-109.985352
158,790000,1090000,158,582,8720,3461,-1096,1347,-1794,0.0710449219,1.06445312,0.422485352,-66.8945312,82.2143555,-109.49707
159,794992,1094992,159,560,8494,3435,-1103,1365,-1797,0.068359375,1.03686523,0.419311523,-67.3217773,83.3129883,-109.680176
160,800000,1100000,160,543,8293,3369,-1093,1394,-1805,0.0662841797,1.0123291,0.411254883,-66.7114258,85.0830078,-110.168457
161,804992,1104992,161,490,8215,3280,-1054,1445,-1820,0.0598144531,1.00280762,0.400390625,-64.3310547,88.1958008,-111.083984
162,810000,1110000,162,384,8217,3285,-992,1509,-1846,0.046875,1.00305176,0.401000977,-60.546875,92.1020508,-112.670898
163,814992,1114992,163,259,8153,3335,-933,1568,-1872,0.0316162109,0.995239258,0.407104492,-56.9458008,95.703125,-114.257812
164,820000,1120000,164,108,8025,3325,-872,1616,-1884,0.0131835938,0.979614258,0.405883789,-53.2226562,98.6328125,-114.990234
165,824992,1124992,165,-98,7910,3239,-792,1659,-1890,-0.0119628906,0.965576172,0.395385742,-48.3398438,101.257324,-115.356445
166,830000,1130000,166,-316,7905,3172,-708,1701,-1904,-0.0385742188,0.96496582,0.387207031,-43.2128906,103.820801,-116.210938
167,834992,1134992,167,-484,8001,3187,-642,1742,-1920,-0.0590820312,0.97668457,0.389038086,-39.1845703,106.323242,-117.1875
168,840000,1140000,168,-634,8061,3228,-597,1775,-1929,-0.0773925781,0.984008789,0.394042969,-36.4379883,108.337402,-117.736816
169,844992,1144992,169,-829,8063,3258,-565,1793,-1930,-0.101196289,0.98425293,0.397705078,-34.4848633,109.436035,-117.797852
170,850000,1150000,170,-1120,8091,3348,-542,1806,-1937,-0.13671875,0.987670898,0.408691406,-33.0810547,110.229492,-118.225098
171,854992,1154992,171,-1443,8198,3571,-524,1823,-1954,-0.176147461,1.00073242,0.435913086,-31.9824219,111.26709,-119.262695
172,860000,1160000,172,-1692,8342,3839,-502,1829,-1976,-0.206542969,1.01831055,0.46862793,-30.6396484,111.633301,-120.605469
173,864992,1164992,173,-1840,8405,3998,-486,1806,-1998,-0.224609375,1.02600098,0.488037109,-29.6630859,110.229492,-121.948242
174,870000,1170000,174,-1929,8346,3959,-492,1762,-2007,-0.235473633,1.01879883,0.483276367,-30.0292969,107.543945,-122.497559
175,874992,1174992,175,-2023,8205,3762,-513,1717,-2008,-0.246948242,1.00158691,0.459228516,-31.3110352,104.797363,-122.558594
176,880000,1180000,176,-2133,8033,3601,-537,1683,-2011,-0.260375977,0.98059082,0.439575195,-32.7758789,102.722168,-122.741699
177,884992,1184992,177,-2292,7938,3583,-559,1669,-2020,-0.279785156,0.968994141,0.43737793,-34.1186523,101.867676,-123.291016
178,890000,1190000,178,-2447,7950,3661,-574,1669,-2035,-0.298706055,0.970458984,0.446899414,-35.0341797,101.867676,-124.206543
179,894992,1194992,179,-2520,8037,3786,-584,1670,-2052,-0.307617188,0.981079102,0.462158203,-35.6445312,101.928711,-125.244141
180,900000,1200000,180,-2528,8134,3929,-605,1664,-2062,-0.30859375,0.992919922,0.479614258,-36.9262695,101.5625,-125.854492
181,904992,1204992,181,-2484,8195,4074,-646,1654,-2068,-0.303222656,1.00036621,0.497314453,-39.4287109,100.952148,-126.220703
182,910000,1210000,182,-2399,8136,4125,-704,1640,-2069,-0.29284668,0.993164062,0.503540039,-42.96875,100.097656,-126.281738
183,914992,1214992,183,-2345,7922,4076,-759,1623,-2059,-0.286254883,0.967041016,0.497558594,-46.3256836,99.0600586,-125.671387
184,920000,1220000,184,-2385,7696,4015,-793,1621,-2052,-0.291137695,0.939453125,0.490112305,-48.4008789,98.9379883,-125.244141
185,924992,1224992,185,-2437,7568,3996,-799,1635,-2056,-0.297485352,0.923828125,0.487792969,-48.7670898,99.7924805,-125.488281
186,930000,1230000,186,-2429,7508,4035,-785,1660,-2063,-0.296508789,0.916503906,0.492553711,-47.9125977,101.318359,-125.915527
187,934992,1234992,187,-2375,7435,4060,-756,1688,-2061,-0.289916992,0.907592773,0.495605469,-46.1425781,103.027344,-125.793457
188,940000,1240000,188,-2335,7333,4034,-722,1716,-2054,-0.28503418,0.895141602,0.492431641,-44.0673828,104.736328,-125.366211
189,944992,1244992,189,-2340,7186,3920,-680,1749,-2047,-0.285644531,0.877197266,0.478515625,-41.5039062,106.750488,-124.938965
190,950000,1250000,190,-2361,6965,3673,-618,1782,-2038,-0.288208008,0.850219727,0.448364258,-37.7197266,108.764648,-124.389648
191,954992,1254992,191,-2418,6699,3356,-536,1815,-2024,-0.295166016,0.817749023,0.409667969,-32.7148438,110.778809,-123.535156
192,960000,1260000,192,-2539,6424,3142,-442,1860,-2011,-0.309936523,0.784179688,0.383544922,-26.9775391,113.525391,-122.741699
193,964992,1264992,193,-2735,6266,3196,-349,1923,-2009,-0.333862305,0.764892578,0.390136719,-21.3012695,117.370605,-122.619629
194,970000,1270000,194,-2958,6363,3499,-263,1997,-2026,-0.361083984,0.776733398,0.427124023,-16.0522461,121.887207,-123.657227
195,974992,1274992,195,-3110,6654,3868,-191,2060,-2058,-0.379638672,0.812255859,0.472167969,-11.6577148,125.732422,-125.610352
196,980000,1280000,196,-3176,6985,4162,-161,2089,-2093,-0.387695312,0.852661133,0.508056641,-9.82666016,127.502441,-127.746582
197,984992,1284992,197,-3212,7215,4276,-184,2094,-2123,-0.392089844,0.880737305,0.521972656,-11.2304688,127.807617,-129.577637
198,990000,1290000,198,-3296,7352,4307,-243,2091,-2148,-0.40234375,0.897460938,0.525756836,-14.831543,127.624512,-131.103516
199,994992,1294992,199,-3397,7465,4371,-320,2101,-2180,-0.414672852,0.911254883,0.533569336,-19.53125,128.234863,-133.056641
200,1000000,1300000,200,-3405,7477,4349,-402,2107,-2211,-0.415649414,0.912719727,0.530883789,-24.5361328,128.601074,-134.94873
201,1004992,1304992,201,-3364,7324,4206,-481,2099,-2225,-0.410644531,0.894042969,0.513427734,-29.3579102,128.112793,-135.803223
202,1010000,1310000,202,-3416,7087,4021,-546,2109,-2228,-0.416992188,0.865112305,0.490844727,-33.3251953,128.723145,-135.986328
203,1014992,1314992,203,-3540,6821,3894,-579,2146,-2234,-0.432128906,0.832641602,0.475341797,-35.3393555,130.981445,-136.352539
204,1020000,1320000,204,-3680,6510,3773,-565,2189,-2238,-0.44921875,0.794677734,0.460571289,-34.4848633,133.605957,-136.59668
205,1024992,1324992,205,-3788,6099,3491,-504,2218,-2230,-0.462402344,0.744506836,0.426147461,-30.7617188,135.375977,-136.108398
206,1030000,1330000,206,-3827,5657,3020,-413,2233,-2205,-0.467163086,0.690551758,0.368652344,-25.2075195,136.291504,-134.58252
207,1034992,1334992,207,-3869,5310,2538,-311,2251,-2171,-0.472290039,0.648193359,0.309814453,-18.9819336,137.390137,-132.507324
208,1040000,1340000,208,-3968,5150,2250,-212,2290,-2145,-0.484375,0.628662109,0.274658203,-12.9394531,139.770508,-130.92041
209,1044992,1344992,209,-4067,5150,2109,-105,2345,-2137,-0.496459961,0.628662109,0.257446289,-6.40869141,143.127441,-130.432129
210,1050000,1350000,210,-4093,5156,2024,4,2387,-2135,-0.499633789,0.629394531,0.247070312,0.244140625,145.690918,-130.310059
211,1054992,1354992,211,-4132,5137,1969,82,2414,-2128,-0.504394531,0.627075195,0.240356445,5.00488281,147.338867,-129.882812
212,1060000,1360000,212,-4204,5062,1859,125,2435,-2118,-0.513183594,0.617919922,0.226928711,7.62939453,148.620605,-129.272461
213,1064992,1364992,213,-4224,4899,1616,147,2432,-2100,-0.515625,0.598022461,0.197265625,8.97216797,148.4375,-128.173828
214,1070000,1370000,214,-4190,4634,1192,151,2400,-2071,-0.511474609,0.565673828,0.145507812,9.21630859,146.484375,-126.403809
215,1074992,1374992,215,-4163,4271,663,153,2360,-2038,-0.508178711,0.521362305,0.0809326172,9.33837891,144.042969,-124.389648
216,1080000,1380000,216,-4213,3904,235,167,2334,-2005,-0.514282227,0.4765625,0.0286865234,10.1928711,142.456055,-122.375488
217,1084992,1384992,217,-4312,3638,-44,189,2330,-1979,-0.526367188,0.444091797,-0.00537109375,11.5356445,142.211914,-120.788574
218,1090000,1390000,218,-4398,3444,-208,230,2329,-1956,-0.536865234,0.420410156,-0.025390625,14.0380859,142.150879,-119.384766
219,1094992,1394992,219,-4499,3255,-250,281,2315,-1925,-0.549194336,0.397338867,-0.0305175781,17.1508789,141.296387,-117.492676
220,1100000,1400000,220,-4687,3107,-235,319,2290,-1900,-0.572143555,0.379272461,-0.0286865234,19.4702148,139.770508,-115.966797
221,1104992,1404992,221,-4883,3039,-163,339,2258,-1887,-0.596069336,0.37097168,-0.0198974609,20.690918,137.817383,-115.17334
222,1110000,1410000,222,-5024,3051,-127,342,2217,-1872,-0.61328125,0.372436523,-0.0155029297,20.8740234,135.314941,-114.257812
223,1114992,1414992,223,-5099,3091,-233,339,2155,-1848,-0.622436523,0.377319336,-0.0284423828,20.690918,131.530762,-112.792969
224,1120000,1420000,224,-5136,3083,-445,337,2080,-1815,-0.626953125,0.376342773,-0.0543212891,20.5688477,126.953125,-110.778809
225,1124992,1424992,225,-5184,3029,-645,331,2006,-1776,-0.6328125,0.369750977,-0.0787353516,20.2026367,122.436523,-108.398438
226,1130000,1430000,226,-5237,2998,-731,314,1938,-1740,-0.639282227,0.365966797,-0.0892333984,19.1650391,118.286133,-106.201172
227,1134992,1434992,227,-5246,2960,-815,290,1876,-1705,-0.640380859,0.361328125,-0.0994873047,17.7001953,114.501953,-104.064941
228,1140000,1440000,228,-5186,2814,-1024,271,1801,-1666,-0.633056641,0.343505859,-0.125,16.5405273,109.924316,-101.68457
229,1144992,1444992,229,-5111,2551,-1381,256,1706,-1621,-0.623901367,0.311401367,-0.168579102,15.625,104.125977,-98.9379883
230,1150000,1450000,230,-5055,2220,-1835,248,1610,-1568,-0.61706543,0.270996094,-0.223999023,15.1367188,98.2666016,-95.703125
231,1154992,1454992,231,-4978,1843,-2334,254,1526,-1507,-0.607666016,0.224975586,-0.284912109,15.5029297,93.1396484,-91.9799805
232,1160000,1460000,232,-4864,1467,-2709,286,1448,-1433,-0.59375,0.179077148,-0.330688477,17.4560547,88.3789062,-87.4633789
233,1164992,1464992,233,-4832,1141,-2864,326,1388,-1354,-0.58984375,0.139282227,-0.349609375,19.8974609,84.7167969,-82.6416016
234,1170000,1470000,234,-4831,830,-2928,359,1340,-1278,-0.58972168,0.101318359,-0.357421875,21.9116211,81.7871094,-78.0029297
235,1174992,1474992,235,-4829,564,-2986,398,1281,-1189,-0.589477539,0.0688476562,-0.364501953,24.2919922,78.1860352,-72.5708008
236,1180000,1480000,236,-4897,374,-3066,447,1211,-1090,-0.59777832,0.0456542969,-0.374267578,27.2827148,73.9135742,-66.5283203
237,1184992,1484992,237,-4993,231,-3141,498,1133,-1000,-0.60949707,0.0281982422,-0.383422852,30.3955078,69.152832,-61.0351562
238,1190000,1490000,238,-5058,141,-3185,524,1046,-914,-0.617431641,0.0172119141,-0.388793945,31.9824219,63.8427734,-55.7861328
239,1194992,1494992,239,-5088,100,-3213,514,958,-823,-0.62109375,0.0122070312,-0.392211914,31.3720703,58.4716797,-50.2319336
240,1200000,1500000,240,-5140,105,-3202,484,870,-722,-0.627441406,0.0128173828,-0.390869141,29.5410156,53.1005859,-44.0673828
241,1204992,1504992,241,-5207,131,-3102,445,769,-611,-0.635620117,0.0159912109,-0.378662109,27.1606445,46.9360352,-37.2924805
242,1210000,1510000,242,-5254,132,-2991,403,658,-491,-0.641357422,0.0161132812,-0.365112305,24.597168,40.1611328,-29.9682617
243,1214992,1514992,243,-5290,100,-2967,363,540,-361,-0.645751953,0.0122070312,-0.362182617,22.1557617,32.9589844,-22.0336914
244,1220000,1520000,244,-5322,53,-3036,327,412,-228,-0.649658203,0.00646972656,-0.370605469,19.9584961,25.1464844,-13.9160156
245,1224992,1524992,245,-5344,-31,-3209,298,277,-96,-0.65234375,-0.00378417969,-0.391723633,18.1884766,16.9067383,-5.859375
246,1230000,1530000,246,-5337,-155,-3459,280,138,31,-0.651489258,-0.0189208984,-0.422241211,17.0898438,8.42285156,1.89208984
247,1234992,1534992,247,-5290,-299,-3704,272,-4,153,-0.645751953,-0.0364990234,-0.452148438,16.6015625,-0.244140625,9.33837891
248,1240000,1540000,248,-5202,-416,-3929,266,-137,271,-0.635009766,-0.05078125,-0.479614258,16.2353516,-8.36181641,16.5405273
249,1244992,1544992,249,-5113,-472,-4121,269,-255,389,-0.624145508,-0.0576171875,-0.503051758,16.418457,-15.5639648,23.7426758
250,1250000,1550000,250,-5114,-454,-4225,287,-370,510,-0.624267578,-0.0554199219,-0.51574707,17.5170898,-22.5830078,31.1279297
251,1254992,1554992,251,-5134,-375,-4275,303,-477,628,-0.626708984,-0.0457763672,-0.521850586,18.4936523,-29.1137695,38.3300781
252,1260000,1560000,252,-5126,-256,-4309,309,-581,743,-0.625732422,-0.03125,-0.526000977,18.8598633,-35.4614258,45.3491211
253,1264992,1564992,253,-5147,-107,-4325,319,-693,854,-0.628295898,-0.0130615234,-0.527954102,19.4702148,-42.2973633,52.1240234
254,1270000,1570000,254,-5155,25,-4325,346,-812,963,-0.629272461,0.00305175781,-0.527954102,21.1181641,-49.5605469,58.7768555
255,1274992,1574992,255,-5143,111,-4344,383,-930,1074,-0.627807617,0.0135498047,-0.530273438,23.3764648,-56.7626953,65.5517578
256,1280000,1580000,256,-5122,159,-4416,427,-1043,1189,-0.625244141,0.0194091797,-0.5390625,26.0620117,-63.659668,72.5708008
257,1284992,1584992,257,-5090,179,-4494,486,-1160,1302,-0.621337891,0.0218505859,-0.548583984,29.6630859,-70.8007812,79.4677734
258,1290000,1590000,258,-5044,180,-4529,561,-1281,1416,-0.615722656,0.0219726562,-0.552856445,34.2407227,-78.1860352,86.4257812
259,1294992,1594992,259,-4992,251,-4469,631,-1382,1533,-0.609375,0.0306396484,-0.545532227,38.5131836,-84.3505859,93.5668945
260,1300000,1600000,260,-4982,480,-4333,675,-1468,1641,-0.608154297,0.05859375,-0.528930664,41.1987305,-89.5996094,100.158691
261,1304992,1604992,261,-4966,877,-4018,695,-1557,1730,-0.606201172,0.107055664,-0.490478516,42.4194336,-95.0317383,105.59082
262,1310000,1610000,262,-4925,1352,-3465,692,-1639,1812,-0.601196289,0.165039062,-0.422973633,42.2363281,-100.036621,110.595703
263,1314992,1614992,263,-4925,1789,-2878,678,-1724,1896,-0.601196289,0.218383789,-0.351318359,41.3818359,-105.224609,115.722656
264,1320000,1620000,264,-4983,2155,-2352,654,-1816,1983,-0.608276367,0.263061523,-0.287109375,39.9169922,-110.839844,121.032715
265,1324992,1624992,265,-5072,2450,-1900,599,-1920,2070,-0.619140625,0.299072266,-0.231933594,36.5600586,-117.1875,126.342773
266,1330000,1630000,266,-5136,2718,-1543,509,-2033,2152,-0.626953125,0.331787109,-0.188354492,31.0668945,-124.084473,131.347656
267,1334992,1634992,267,-5140,2965,-1261,396,-2146,2227,-0.627441406,0.361938477,-0.153930664,24.1699219,-130.981445,135.925293
268,1340000,1640000,268,-5102,3147,-1108,271,-2259,2301,-0.622802734,0.384155273,-0.135253906,16.5405273,-137.878418,140.441895
269,1344992,1644992,269,-5025,3243,-1060,153,-2372,2380,-0.61340332,0.395874023,-0.129394531,9.33837891,-144.775391,145.263672
270,1350000,1650000,270,-4911,3259,-1060,41,-2482,2464,-0.599487305,0.397827148,-0.129394531,2.50244141,-151.489258,150.390625
271,1354992,1654992,271,-4810,3195,-1132,-64,-2579,2547,-0.587158203,0.390014648,-0.138183594,-3.90625,-157.409668,155.456543
272,1360000,1660000,272,-4672,3044,-1283,-151,-2668,2629,-0.5703125,0.371582031,-0.156616211,-9.21630859,-162.841797,160.461426
273,1364992,1664992,273,-4483,2855,-1498,-206,-2752,2717,-0.547241211,0.348510742,-0.182861328,-12.5732422,-167.96875,165.83252
274,1370000,1670000,274,-4254,2635,-1749,-218,-2831,2805,-0.519287109,0.321655273,-0.213500977,-13.3056641,-172.790527,171.203613
275,1374992,1674992,275,-3979,2386,-2009,-183,-2891,2894,-0.485717773,0.291259766,-0.245239258,-11.1694336,-176.452637,176.635742
276,1380000,1680000,276,-3706,2175,-2202,-110,-2928,2983,-0.452392578,0.26550293,-0.268798828,-6.71386719,-178.710938,182.067871
277,1384992,1684992,277,-3479,2054,-2215,-18,-2936,3058,-0.424682617,0.250732422,-0.270385742,-1.09863281,-179.199219,186.645508
278,1390000,1690000,278,-3279,2190,-1981,62,-2913,3098,-0.400268555,0.267333984,-0.241821289,3.78417969,-177.79541,189.086914
279,1394992,1694992,279,-3006,2687,-1570,106,-2868,3075,-0.366943359,0.32800293,-0.191650391,6.46972656,-175.048828,187.683105
280,1400000,1700000,280,-2584,3340,-1120,126,-2811,3014,-0.315429688,0.407714844,-0.13671875,7.69042969,-171.569824,183.959961
281,1404992,1704992,281,-2221,3919,-728,144,-2760,2983,-0.271118164,0.478393555,-0.0888671875,8.7890625,-168.457031,182.067871
282,1410000,1710000,282,-2116,4263,-453,176,-2736,2991,-0.258300781,0.520385742,-0.0552978516,10.7421875,-166.992188,182.556152
283,1414992,1714992,283,-2133,4353,-292,230,-2751,3021,-0.260375977,0.53137207,-0.0356445312,14.0380859,-167.907715,184.387207
284,1420000,1720000,284,-2153,4361,-168,288,-2785,3058,-0.262817383,0.532348633,-0.0205078125,17.578125,-169.98291,186.645508
285,1424992,1724992,285,-2083,4443,-24,333,-2816,3088,-0.254272461,0.542358398,-0.0029296875,20.324707,-171.875,188.476562
286,1430000,1730000,286,-1902,4644,175,367,-2833,3117,-0.232177734,0.566894531,0.0213623047,22.3999023,-172.912598,190.246582
287,1434992,1734992,287,-1666,4876,423,414,-2840,3161,-0.203369141,0.595214844,0.0516357422,25.2685547,-173.339844,192.932129
288,1440000,1740000,288,-1452,5092,764,482,-2852,3225,-0.177246094,0.621582031,0.0932617188,29.4189453,-174.072266,196.838379
289,1444992,1744992,289,-1338,5428,1301,530,-2859,3287,-0.163330078,0.662597656,0.158813477,32.3486328,-174.499512,200.622559
290,1450000,1750000,290,-1279,6040,1980,507,-2847,3322,-0.15612793,0.737304688,0.241699219,30.9448242,-173.76709,202.758789
291,1454992,1754992,291,-1188,6916,2574,407,-2834,3327,-0.145019531,0.844238281,0.314208984,24.8413086,-172.973633,203.063965
292,1460000,1760000,292,-940,7769,2965,277,-2868,3323,-0.114746094,0.948364258,0.361938477,16.9067383,-175.048828,202.819824
293,1464992,1764992,293,-551,8293,3220,157,-2948,3333,-0.0672607422,1.0123291,0.393066406,9.58251953,-179.931641,203.430176
294,1470000,1770000,294,-228,8378,3430,41,-3030,3345,-0.0278320312,1.02270508,0.418701172,2.50244141,-184.936523,204.162598
295,1474992,1774992,295,-111,8258,3621,-99,-3073,3329,-0.0135498047,1.00805664,0.442016602,-6.04248047,-187.561035,203.186035
296,1480000,1780000,296,-104,8296,3835,-239,-3074,3270,-0.0126953125,1.01269531,0.468139648,-14.5874023,-187.62207,199.584961
297,1484992,1784992,297,13,8512,4086,-350,-3056,3196,0.00158691406,1.0390625,0.498779297,-21.3623047,-186.523438,195.068359
298,1490000,1790000,298,290,8741,4167,-417,-3056,3141,0.0354003906,1.0670166,0.508666992,-25.4516602,-186.523438,191.711426
299,1494992,1794992,299,722,8810,4023,-413,-3088,3115,0.0881347656,1.07543945,0.491088867,-25.2075195,-188.476562,190.124512
300,1500000,1800000,300,1204,8572,3751,-341,-3124,3116,0.146972656,1.04638672,0.457885742,-20.8129883,-190.673828,190.185547
301,1504992,1804992,301,1526,8073,3470,-220,-3128,3129,0.186279297,0.985473633,0.423583984,-13.4277344,-190.917969,190.979004
302,1510000,1810000,302,1632,7615,3417,-51,-3075,3121,0.19921875,0.92956543,0.417114258,-3.11279297,-187.683105,190.490723
303,1514992,1814992,303,1646,7493,3658,164,-2977,3069,0.200927734,0.914672852,0.446533203,10.0097656,-181.70166,187.316895
304,1520000,1820000,304,1741,7716,4008,415,-2873,2992,0.212524414,0.941894531,0.489257812,25.3295898,-175.354004,182.617188
305,1524992,1824992,305,1957,8065,4202,674,-2793,2931,0.238891602,0.98449707,0.512939453,41.1376953,-170.471191,178.894043
306,1530000,1830000,306,2220,8341,4178,915,-2740,2900,0.270996094,1.01818848,0.510009766,55.847168,-167.236328,177.001953
307,1534992,1834992,307,2404,8455,4052,1121,-2691,2893,0.293457031,1.03210449,0.494628906,68.4204102,-164.245605,176.574707
308,1540000,1840000,308,2414,8546,4051,1283,-2620,2887,0.294677734,1.04321289,0.494506836,78.3081055,-159.912109,176.208496
309,1544992,1844992,309,2268,8902,4466,1386,-2512,2853,0.276855469,1.08666992,0.545166016,84.5947266,-153.320312,174.133301
310,1550000,1850000,310,2049,9561,5263,1401,-2388,2787,0.25012207,1.16711426,0.642456055,85.5102539,-145.751953,170.10498
311,1554992,1854992,311,1829,10408,6027,1323,-2305,2704,0.223266602,1.27050781,0.735717773,80.7495117,-140.686035,165.039062
312,1560000,1860000,312,1808,11185,6502,1213,-2288,2622,0.220703125,1.36535645,0.793701172,74.0356445,-139.648438,160.03418
313,1564992,1864992,313,1939,11617,6802,1085,-2311,2559,0.236694336,1.41809082,0.830322266,66.2231445,-141.052246,156.188965
314,1570000,1870000,314,1933,11718,6947,902,-2338,2505,0.235961914,1.43041992,0.848022461,55.0537109,-142.700195,152.893066
315,1574992,1874992,315,1815,11685,6959,679,-2353,2438,0.221557617,1.4263916,0.849487305,41.4428711,-143.615723,148.803711
316,1580000,1880000,316,1743,11639,6907,456,-2360,2365,0.212768555,1.42077637,0.843139648,27.8320312,-144.042969,144.348145
317,1584992,1884992,317,1848,11473,6745,267,-2378,2305,0.225585938,1.4005127,0.823364258,16.2963867,-145.141602,140.686035
318,1590000,1890000,318,2124,11108,6446,119,-2398,2265,0.259277344,1.35595703,0.786865234,7.26318359,-146.362305,138.244629
319,1594992,1894992,319,2424,10568,5982,19,-2400,2240,0.295898438,1.29003906,0.730224609,1.15966797,-146.484375,136.71875
320,1600000,1900000,320,2660,9952,5385,-15,-2382,2218,0.324707031,1.21484375,0.657348633,-0.915527344,-145.385742,135.375977
321,1604992,1904992,321,2864,9373,4722,28,-2342,2193,0.349609375,1.14416504,0.576416016,1.70898438,-142.944336,133.850098
322,1610000,1910000,322,3076,8885,4032,142,-2278,2166,0.375488281,1.08459473,0.4921875,8.66699219,-139.038086,132.202148
323,1614992,1914992,323,3286,8477,3382,307,-2189,2137,0.401123047,1.03479004,0.412841797,18.737793,-133.605957,130.432129
324,1620000,1920000,324,3481,8124,2866,506,-2074,2112,0.424926758,0.991699219,0.349853516,30.8837891,-126.586914,128.90625
325,1624992,1924992,325,3634,7828,2522,729,-1938,2089,0.443603516,0.955566406,0.307861328,44.4946289,-118.286133,127.502441
326,1630000,1930000,326,3718,7583,2306,962,-1789,2065,0.453857422,0.92565918,0.281494141,58.7158203,-109.191895,126.037598
327,1634992,1934992,327,3739,7414,2206,1196,-1642,2039,0.456420898,0.905029297,0.269287109,72.9980469,-100.219727,124.450684
328,1640000,1940000,328,3754,7376,2234,1418,-1506,2010,0.458251953,0.900390625,0.272705078,86.5478516,-91.9189453,122.680664
329,1644992,1944992,329,3783,7503,2366,1616,-1377,1981,0.461791992,0.915893555,0.288818359,98.6328125,-84.0454102,120.910645
330,1650000,1950000,330,3799,7821,2585,1780,-1258,1954,0.463745117,0.954711914,0.315551758,108.642578,-76.7822266,119.262695
331,1654992,1954992,331,3814,8264,2918,1892,-1150,1931,0.465576172,1.00878906,0.356201172,115.478516,-70.1904297,117.858887
332,1660000,1960000,332,3834,8772,3320,1939,-1055,1920,0.468017578,1.07080078,0.405273438,118.347168,-64.3920898,117.1875
333,1664992,1964992,333,3863,9355,3717,1920,-977,1921,0.471557617,1.14196777,0.453735352,117.1875,-59.6313477,117.248535
334,1670000,1970000,334,3868,9998,4081,1843,-920,1925,0.472167969,1.22045898,0.498168945,112.487793,-56.1523438,117.492676
335,1674992,1974992,335,3862,10650,4316,1720,-892,1924,0.471435547,1.30004883,0.526855469,104.980469,-54.4433594,117.431641
336,1680000,1980000,336,3864,11147,4398,1554,-892,1924,0.471679688,1.36071777,0.536865234,94.8486328,-54.4433594,117.431641
337,1684992,1984992,337,3800,11348,4258,1346,-919,1937,0.463867188,1.38525391,0.519775391,82.1533203,-56.0913086,118.225098
338,1690000,1990000,338,3700,11241,3906,1122,-965,1954,0.451660156,1.37219238,0.476806641,68.4814453,-58.8989258,119.262695
339,1694992,1994992,339,3621,10906,3512,919,-1004,1959,0.442016602,1.33129883,0.428710938,56.0913086,-61.2792969,119.567871
340,1700000,2000000,340,3534,10490,3097,760,-1027,1943,0.431396484,1.28051758,0.378051758,46.3867188,-62.6831055,118.591309
341,1704992,2004992,341,3409,10131,2654,658,-1040,1905,0.416137695,1.23669434,0.323974609,40.1611328,-63.4765625,116.271973
342,1710000,2010000,342,3314,9875,2232,609,-1049,1850,0.404541016,1.20544434,0.272460938,37.1704102,-64.0258789,112.915039
343,1714992,2014992,343,3316,9664,1953,590,-1045,1789,0.404785156,1.1796875,0.23840332,36.0107422,-63.7817383,109.191895
344,1720000,2020000,344,3361,9455,1835,585,-1018,1725,0.41027832,1.1541748,0.223999023,35.7055664,-62.1337891,105.285645
345,1724992,2024992,345,3400,9265,1807,588,-973,1652,0.415039062,1.13098145,0.220581055,35.8886719,-59.387207,100.830078
346,1730000,2030000,346,3418,9158,1761,609,-925,1570,0.417236328,1.11791992,0.21496582,37.1704102,-56.4575195,95.8251953
347,1734992,2034992,347,3417,9176,1738,652,-883,1482,0.417114258,1.12011719,0.212158203,39.7949219,-53.894043,90.4541016
348,1740000,2040000,348,3448,9299,1819,688,-839,1394,0.420898438,1.13513184,0.222045898,41.9921875,-51.2084961,85.0830078
349,1744992,2044992,349,3557,9469,1927,694,-791,1312,0.434204102,1.15588379,0.235229492,42.3583984,-48.2788086,80.078125
350,1750000,2050000,350,3661,9623,2089,679,-739,1238,0.446899414,1.17468262,0.255004883,41.4428711,-45.1049805,75.5615234
351,1754992,2054992,351,3663,9691,2245,643,-684,1175,0.447143555,1.1829834,0.274047852,39.2456055,-41.7480469,71.7163086
352,1760000,2060000,352,3598,9689,2344,593,-637,1121,0.439208984,1.18273926,0.286132812,36.1938477,-38.8793945,68.4204102
353,1764992,2064992,353,3555,9729,2407,532,-605,1067,0.433959961,1.18762207,0.293823242,32.4707031,-36.9262695,65.1245117
354,1770000,2070000,354,3553,9800,2414,459,-583,1012,0.43371582,1.19628906,0.294677734,28.0151367,-35.5834961,61.7675781
355,1774992,2074992,355,3534,9807,2402,375,-566,964,0.431396484,1.19714355,0.293212891,22.8881836,-34.5458984,58.8378906
356,1780000,2080000,356,3489,9727,2356,282,-551,920,0.42590332,1.18737793,0.287597656,17.2119141,-33.6303711,56.1523438
357,1784992,2084992,357,3463,9564,2279,188,-536,873,0.422729492,1.16748047,0.278198242,11.4746094,-32.7148438,53.2836914
358,1790000,2090000,358,3466,9339,2155,105,-519,827,0.423095703,1.14001465,0.263061523,6.40869141,-31.6772461,50.4760742
359,1794992,2094992,359,3489,9147,1946,46,-505,778,0.42590332,1.11657715,0.237548828,2.80761719,-30.8227539,47.4853516
360,1800000,2100000,360,3532,9030,1715,11,-487,724,0.431152344,1.10229492,0.209350586,0.671386719,-29.7241211,44.1894531
361,1804992,2104992,361,3602,8924,1499,-13,-456,671,0.439697266,1.08935547,0.182983398,-0.793457031,-27.8320312,40.9545898
362,1810000,2110000,362,3675,8789,1297,-30,-415,624,0.448608398,1.07287598,0.158325195,-1.83105469,-25.3295898,38.0859375
363,1814992,2114992,363,3706,8630,1123,-35,-365,580,0.452392578,1.0534668,0.137084961,-2.13623047,-22.277832,35.4003906
364,1820000,2120000,364,3680,8464,961,-24,-309,534,0.44921875,1.03320312,0.11730957,-1.46484375,-18.8598633,32.5927734
365,1824992,2124992,365,3645,8311,775,7,-255,488,0.444946289,1.01452637,0.0946044922,0.427246094,-15.5639648,29.7851562
366,1830000,2130000,366,3642,8175,596,62,-200,449,0.444580078,0.997924805,0.0727539062,3.78417969,-12.2070312,27.4047852
367,1834992,2134992,367,3658,8058,487,128,-143,416,0.446533203,0.983642578,0.0594482422,7.8125,-8.72802734,25.390625
368,1840000,2140000,368,3690,7963,407,198,-87,388,0.450439453,0.972045898,0.0496826172,12.0849609,-5.31005859,23.6816406
369,1844992,2144992,369,3719,7915,317,273,-36,358,0.453979492,0.966186523,0.0386962891,16.6625977,-2.19726562,21.8505859
370,1850000,2150000,370,3719,7929,261,344,13,327,0.453979492,0.967895508,0.0318603516,20.9960938,0.793457031,19.9584961
371,1854992,2154992,371,3700,7988,243,395,57,298,0.451660156,0.975097656,0.0296630859,24.1088867,3.47900391,18.1884766
372,1860000,2160000,372,3690,8062,252,424,91,273,0.450439453,0.984130859,0.0307617188,25.8789062,5.55419922,16.6625977
373,1864992,2164992,373,3651,8125,284,438,119,252,0.445678711,0.991821289,0.0346679688,26.7333984,7.26318359,15.3808594
374,1870000,2170000,374,3565,8184,337,435,135,231,0.435180664,0.999023438,0.0411376953,26.550293,8.23974609,14.0991211
375,1874992,2174992,375,3495,8240,397,413,138,211,0.426635742,1.00585938,0.0484619141,25.2075195,8.42285156,12.878418
376,1880000,2180000,376,3460,8270,478,374,135,191,0.422363281,1.00952148,0.0583496094,22.8271484,8.23974609,11.6577148
377,1884992,2184992,377,3428,8272,580,324,130,176,0.418457031,1.00976562,0.0708007812,19.7753906,7.93457031,10.7421875
378,1890000,2190000,378,3386,8235,658,268,117,162,0.413330078,1.00524902,0.0803222656,16.3574219,7.14111328,9.88769531
379,1894992,2194992,379,3379,8175,695,210,92,147,0.412475586,0.997924805,0.0848388672,12.8173828,5.61523438,8.97216797
380,1900000,2200000,380,3419,8073,692,155,66,134,0.417358398,0.985473633,0.0844726562,9.46044922,4.02832031,8.17871094
381,1904992,2204992,381,3479,7922,649,111,43,126,0.424682617,0.967041016,0.0792236328,6.77490234,2.62451172,7.69042969
382,1910000,2210000,382,3535,7749,583,83,24,123,0.431518555,0.945922852,0.0711669922,5.06591797,1.46484375,7.50732422
383,1914992,2214992,383,3568,7576,517,73,8,121,0.435546875,0.924804688,0.0631103516,4.45556641,0.48828125,7.38525391
384,1920000,2220000,384,3596,7412,437,83,-5,122,0.438964844,0.904785156,0.0533447266,5.06591797,-0.305175781,7.44628906
385,1924992,2224992,385,3628,7255,350,110,-16,128,0.442871094,0.885620117,0.0427246094,6.71386719,-0.9765625,7.8125
386,1930000,2230000,386,3677,7134,298,148,-23,136,0.448852539,0.870849609,0.0363769531,9.03320312,-1.40380859,8.30078125
387,1934992,2234992,387,3772,7060,280,192,-28,141,0.460449219,0.861816406,0.0341796875,11.71875,-1.70898438,8.60595703
388,1940000,2240000,388,3887,7004,285,234,-33,147,0.474487305,0.854980469,0.0347900391,14.2822266,-2.01416016,8.97216797
389,1944992,2244992,389,3988,6960,309,262,-39,153,0.486816406,0.849609375,0.0377197266,15.9912109,-2.38037109,9.33837891
390,1950000,2250000,390,4029,6966,350,273,-44,158,0.491821289,0.850341797,0.0427246094,16.6625977,-2.68554688,9.64355469
391,1954992,2254992,391,4021,7022,405,274,-46,158,0.490844727,0.857177734,0.0494384766,16.7236328,-2.80761719,9.64355469
392,1960000,2260000,392,4010,7107,494,267,-47,156,0.489501953,0.867553711,0.0603027344,16.2963867,-2.86865234,9.52148438
393,1964992,2264992,393,4002,7181,608,253,-51,156,0.488525391,0.876586914,0.07421875,15.4418945,-3.11279297,9.52148438
394,1970000,2270000,394,3981,7207,712,234,-56,163,0.485961914,0.879760742,0.0869140625,14.2822266,-3.41796875,9.94873047
395,1974992,2274992,395,3917,7186,770,215,-68,177,0.478149414,0.877197266,0.0939941406,13.1225586,-4.15039062,10.8032227
396,1980000,2280000,396,3836,7143,785,204,-86,191,0.468261719,0.871948242,0.0958251953,12.4511719,-5.24902344,11.6577148
397,1984992,2284992,397,3783,7112,803,200,-101,202,0.461791992,0.868164062,0.0980224609,12.2070312,-6.16455078,12.3291016
398,1990000,2290000,398,3762,7096,861,197,-105,209,0.459228516,0.866210938,0.105102539,12.0239258,-6.40869141,12.7563477
399,1994992,2294992,399,3745,7116,978,194,-95,210,0.45715332,0.868652344,0.119384766,11.8408203,-5.79833984,12.8173828
400,2000000,2300000,400,3722,7183,1143,194,-75,203,0.454345703,0.876831055,0.139526367,11.8408203,-4.57763672,12.3901367
401,2004992,2304992,401,3702,7285,1329,196,-56,190,0.451904297,0.889282227,0.162231445,11.9628906,-3.41796875,11.5966797
402,2010000,2310000,402,3690,7428,1501,192,-41,172,0.450439453,0.906738281,0.183227539,11.71875,-2.50244141,10.4980469
403,2014992,2314992,403,3705,7642,1615,179,-26,143,0.452270508,0.932861328,0.197143555,10.925293,-1.58691406,8.72802734
404,2020000,2320000,404,3748,7907,1683,154,-7,103,0.457519531,0.965209961,0.205444336,9.39941406,-0.427246094,6.28662109
405,2024992,2324992,405,3793,8173,1706,113,18,58,0.463012695,0.997680664,0.208251953,6.89697266,1.09863281,3.54003906
406,2030000,2330000,406,3829,8412,1652,59,44,8,0.467407227,1.02685547,0.201660156,3.60107422,2.68554688,0.48828125
407,2034992,2334992,407,3861,8615,1547,-4,70,-47,0.471313477,1.05163574,0.188842773,-0.244140625,4.27246094,-2.86865234
408,2040000,2340000,408,3882,8769,1436,-70,103,-105,0.473876953,1.07043457,0.175292969,-4.27246094,6.28662109,-6.40869141
409,2044992,2344992,409,3857,8886,1365,-133,148,-168,0.470825195,1.0847168,0.166625977,-8.11767578,9.03320312,-10.2539062
410,2050000,2350000,410,3810,8995,1331,-188,203,-239,0.465087891,1.09802246,0.162475586,-11.4746094,12.3901367,-14.5874023
411,2054992,2354992,411,3771,9094,1296,-233,257,-314,0.460327148,1.11010742,0.158203125,-14.2211914,15.6860352,-19.1650391
412,2060000,2360000,412,3731,9176,1277,-270,313,-393,0.455444336,1.12011719,0.155883789,-16.4794922,19.1040039,-23.9868164
413,2064992,2364992,413,3681,9255,1270,-307,371,-477,0.44934082,1.12976074,0.155029297,-18.737793,22.644043,-29.1137695
414,2070000,2370000,414,3624,9379,1268,-349,430,-569,0.442382812,1.14489746,0.154785156,-21.3012695,26.2451172,-34.7290039
415,2074992,2374992,415,3608,9522,1276,-392,489,-665,0.440429688,1.16235352,0.155761719,-23.9257812,29.8461914,-40.5883789
416,2080000,2380000,416,3629,9657,1305,-434,547,-757,0.442993164,1.17883301,0.159301758,-26.4892578,33.3862305,-46.2036133
417,2084992,2384992,417,3640,9823,1348,-470,607,-846,0.444335938,1.19909668,0.164550781,-28.6865234,37.0483398,-51.6357422
418,2090000,2390000,418,3621,10028,1389,-506,668,-939,0.442016602,1.22412109,0.169555664,-30.8837891,40.7714844,-57.3120117
419,2094992,2394992,419,3608,10238,1434,-549,725,-1038,0.440429688,1.24975586,0.175048828,-33.5083008,44.2504883,-63.3544922
420,2100000,2400000,420,3609,10419,1480,-605,773,-1134,0.440551758,1.27185059,0.180664062,-36.9262695,47.1801758,-69.2138672
421,2104992,2404992,421,3605,10583,1532,-677,815,-1227,0.440063477,1.29187012,0.187011719,-41.3208008,49.7436523,-74.8901367
422,2110000,2410000,422,3587,10759,1602,-762,853,-1321,0.437866211,1.31335449,0.195556641,-46.5087891,52.0629883,-80.6274414
423,2114992,2414992,423,3557,10976,1693,-859,889,-1421,0.434204102,1.33984375,0.206665039,-52.4291992,54.2602539,-86.730957
424,2120000,2420000,424,3539,11225,1802,-969,921,-1523,0.432006836,1.37023926,0.219970703,-59.1430664,56.2133789,-92.956543
425,2124992,2424992,425,3517,11509,1949,-1096,946,-1630,0.429321289,1.40490723,0.237915039,-66.8945312,57.7392578,-99.4873047
426,2130000,2430000,426,3519,11833,2117,-1252,967,-1750,0.42956543,1.44445801,0.258422852,-76.4160156,59.0209961,-106.811523
427,2134992,2434992,427,3550,12190,2315,-1440,991,-1885,0.433349609,1.48803711,0.282592773,-87.890625,60.4858398,-115.05127
428,2140000,2440000,428,3573,12548,2561,-1651,1024,-2027,0.436157227,1.53173828,0.31262207,-100.769043,62.5,-123.718262
429,2144992,2444992,429,3577,12900,2879,-1868,1059,-2166,0.436645508,1.57470703,0.35144043,-114.013672,64.6362305,-132.202148
430,2150000,2450000,430,3585,13227,3233,-2086,1094,-2309,0.43762207,1.61462402,0.39465332,-127.319336,66.7724609,-140.930176
431,2154992,2454992,431,3652,13493,3520,-2301,1126,-2454,0.445800781,1.64709473,0.4296875,-140.441895,68.7255859,-149.780273
432,2160000,2460000,432,3773,13701,3715,-2506,1142,-2589,0.460571289,1.67248535,0.453491211,-152.954102,69.7021484,-158.02002
433,2164992,2464992,433,4019,13810,3878,-2696,1153,-2718,0.490600586,1.68579102,0.473388672,-164.550781,70.3735352,-165.893555
434,2170000,2470000,434,4326,13762,3995,-2873,1181,-2836,0.528076172,1.67993164,0.487670898,-175.354004,72.0825195,-173.095703
435,2174992,2474992,435,4548,13594,4011,-3031,1223,-2945,0.555175781,1.65942383,0.489624023,-184.997559,74.6459961,-179.748535
436,2180000,2480000,436,4776,13336,3964,-3147,1279,-3058,0.583007812,1.62792969,0.483886719,-192.077637,78.0639648,-186.645508
437,2184992,2484992,437,5022,12961,3861,-3207,1359,-3164,0.613037109,1.58215332,0.471313477,-195.739746,82.9467773,-193.115234
438,2190000,2490000,438,5218,12488,3666,-3204,1449,-3254,0.636962891,1.52441406,0.447509766,-195.556641,88.4399414,-198.608398
439,2194992,2494992,439,5355,12008,3404,-3142,1546,-3325,0.653686523,1.46582031,0.415527344,-191.772461,94.3603516,-202.941895
440,2200000,2500000,440,5456,11615,3240,-3023,1658,-3386,0.666015625,1.41784668,0.395507812,-184.509277,101.196289,-206.665039
441,2204992,2504992,441,5501,11318,3285,-2864,1793,-3450,0.671508789,1.3815918,0.401000977,-174.804688,109.436035,-210.571289
442,2210000,2510000,442,5416,11088,3449,-2696,1938,-3505,0.661132812,1.35351562,0.421020508,-164.550781,118.286133,-213.928223
443,2214992,2514992,443,5205,10906,3697,-2525,2071,-3549,0.635375977,1.33129883,0.451293945,-154.11377,126.403809,-216.61377
444,2220000,2520000,444,4903,10795,4040,-2353,2195,-3596,0.598510742,1.31774902,0.493164062,-143.615723,133.972168,-219.482422
445,2224992,2524992,445,4572,10783,4429,-2197,2306,-3642,0.558105469,1.31628418,0.540649414,-134.094238,140.74707,-222.290039
446,2230000,2530000,446,4263,10877,4878,-2061,2402,-3683,0.520385742,1.32775879,0.595458984,-125.793457,146.606445,-224.79248
447,2234992,2534992,447,3996,10952,5287,-1948,2486,-3720,0.487792969,1.33691406,0.645385742,-118.896484,151.733398,-227.050781
448,2240000,2540000,448,3804,10889,5512,-1851,2538,-3743,0.464355469,1.32922363,0.672851562,-112.976074,154.907227,-228.45459
449,2244992,2544992,449,3652,10724,5556,-1769,2562,-3750,0.445800781,1.30908203,0.678222656,-107.971191,156.37207,-228.881836
450,2250000,2550000,450,3542,10535,5538,-1717,2581,-3759,0.432373047,1.28601074,0.676025391,-104.797363,157.531738,-229.431152
451,2254992,2554992,451,3422,10298,5517,-1691,2617,-3772,0.417724609,1.25708008,0.673461914,-103.210449,159.729004,-230.224609
452,2260000,2560000,452,3173,10025,5487,-1669,2667,-3781,0.387329102,1.22375488,0.669799805,-101.867676,162.780762,-230.773926
453,2264992,2564992,453,2887,9849,5541,-1644,2704,-3790,0.352416992,1.20227051,0.676391602,-100.341797,165.039062,-231.323242
454,2270000,2570000,454,2615,9808,5652,-1628,2737,-3804,0.319213867,1.19726562,0.689941406,-99.3652344,167.053223,-232.177734
455,2274992,2574992,455,2403,9811,5739,-1626,2766,-3820,0.293334961,1.19763184,0.700561523,-99.2431641,168.823242,-233.154297
456,2280000,2580000,456,2317,9661,5689,-1636,2775,-3824,0.282836914,1.17932129,0.694458008,-99.8535156,169.372559,-233.398438
457,2284992,2584992,457,2262,9273,5424,-1642,2765,-3799,0.276123047,1.13195801,0.662109375,-100.219727,168.762207,-231.872559
458,2290000,2590000,458,2135,8764,5125,-1635,2758,-3764,0.260620117,1.06982422,0.625610352,-99.7924805,168.334961,-229.736328
459,2294992,2594992,459,1871,8277,4871,-1611,2776,-3739,0.228393555,1.01037598,0.594604492,-98.3276367,169.433594,-228.210449
460,2300000,2600000,460,1588,7834,4643,-1556,2807,-3724,0.193847656,0.956298828,0.566772461,-94.9707031,171.325684,-227.294922
461,2304992,2604992,461,1410,7337,4418,-1470,2831,-3703,0.172119141,0.895629883,0.539306641,-89.7216797,172.790527,-226.013184
462,2310000,2610000,462,1254,6760,4094,-1369,2847,-3665,0.153076172,0.825195312,0.499755859,-83.5571289,173.76709,-223.693848
463,2314992,2614992,463,1051,6234,3722,-1254,2856,-3620,0.128295898,0.760986328,0.454345703,-76.5380859,174.316406,-220.947266
464,2320000,2620000,464,834,5843,3470,-1133,2867,-3579,0.101806641,0.713256836,0.423583984,-69.152832,174.987793,-218.444824
465,2324992,2624992,465,620,5505,3422,-1020,2885,-3540,0.0756835938,0.67199707,0.417724609,-62.2558594,176.086426,-216.064453
466,2330000,2630000,466,401,5213,3598,-922,2908,-3501,0.0489501953,0.636352539,0.439208984,-56.2744141,177.490234,-213.684082
467,2334992,2634992,467,190,5020,3879,-843,2929,-3459,0.0231933594,0.612792969,0.473510742,-51.4526367,178.771973,-211.120605
468,2340000,2640000,468,30,4873,4036,-782,2936,-3410,0.00366210938,0.594848633,0.492675781,-47.7294922,179.199219,-208.129883
469,2344992,2644992,469,-87,4727,4039,-740,2918,-3347,-0.0106201172,0.577026367,0.493041992,-45.1660156,178.100586,-204.284668
470,2350000,2650000,470,-242,4604,3962,-717,2895,-3273,-0.0295410156,0.562011719,0.483642578,-43.762207,176.696777,-199.768066
471,2354992,2654992,471,-384,4435,3866,-704,2868,-3191,-0.046875,0.541381836,0.471923828,-42.96875,175.048828,-194.763184
472,2360000,2660000,472,-529,4205,3833,-699,2842,-3099,-0.0645751953,0.513305664,0.467895508,-42.6635742,173.461914,-189.147949
473,2364992,2664992,473,-717,4006,3828,-696,2825,-3008,-0.0875244141,0.489013672,0.467285156,-42.4804688,172.424316,-183.59375
474,2370000,2670000,474,-896,3878,3817,-686,2807,-2923,-0.109375,0.473388672,0.465942383,-41.8701172,171.325684,-178.405762
475,2374992,2674992,475,-1083,3804,3864,-681,2788,-2841,-0.132202148,0.464355469,0.471679688,-41.5649414,170.166016,-173.400879
476,2380000,2680000,476,-1258,3707,3913,-679,2773,-2764,-0.153564453,0.452514648,0.477661133,-41.4428711,169.250488,-168.701172
477,2384992,2684992,477,-1375,3510,3769,-665,2752,-2685,-0.16784668,0.428466797,0.460083008,-40.5883789,167.96875,-163.879395
478,2390000,2690000,478,-1478,3241,3326,-635,2722,-2606,-0.180419922,0.395629883,0.406005859,-38.7573242,166.137695,-159.057617
479,2394992,2694992,479,-1618,2974,2839,-593,2693,-2527,-0.197509766,0.363037109,0.346557617,-36.1938477,164.367676,-154.23584
480,2400000,2700000,480,-1836,2824,2575,-558,2678,-2447,-0.224121094,0.344726562,0.314331055,-34.0576172,163.452148,-149.353027
481,2404992,2704992,481,-2073,2829,2454,-521,2674,-2374,-0.253051758,0.345336914,0.299560547,-31.7993164,163.208008,-144.897461
482,2410000,2710000,482,-2187,2848,2339,-470,2667,-2302,-0.266967773,0.34765625,0.285522461,-28.6865234,162.780762,-140.50293
483,2414992,2714992,483,-2261,2833,2176,-415,2653,-2224,-0.276000977,0.345825195,0.265625,-25.3295898,161.92627,-135.742188
484,2420000,2720000,484,-2387,2830,1994,-367,2638,-2152,-0.291381836,0.345458984,0.243408203,-22.3999023,161.010742,-131.347656
485,2424992,2724992,485,-2510,2785,1753,-329,2618,-2085,-0.306396484,0.33996582,0.213989258,-20.0805664,159.790039,-127.258301
486,2430000,2730000,486,-2623,2640,1403,-294,2588,-2015,-0.32019043,0.322265625,0.171264648,-17.9443359,157.958984,-122.98584
487,2434992,2734992,487,-2811,2490,1149,-265,2559,-1947,-0.343139648,0.303955078,0.140258789,-16.1743164,156.188965,-118.835449
488,2440000,2740000,488,-3047,2386,1101,-250,2544,-1889,-0.371948242,0.291259766,0.134399414,-15.2587891,155.273438,-115.29541
489,2444992,2744992,489,-3272,2305,1214,-236,2532,-1836,-0.399414062,0.28137207,0.148193359,-14.4042969,154.541016,-112.060547
490,2450000,2750000,490,-3555,2453,1501,-217,2525,-1791,-0.433959961,0.299438477,0.183227539,-13.2446289,154.11377,-109.313965
491,2454992,2754992,491,-3765,2747,1668,-195,2514,-1762,-0.459594727,0.335327148,0.203613281,-11.9018555,153.442383,-107.543945
492,2460000,2760000,492,-3826,2814,1476,-183,2465,-1715,-0.467041016,0.343505859,0.180175781,-11.1694336,150.45166,-104.675293
493,2464992,2764992,493,-3979,2751,1148,-199,2398,-1653,-0.485717773,0.33581543,0.140136719,-12.1459961,146.362305,-100.891113
494,2470000,2770000,494,-4210,2733,883,-228,2346,-1613,-0.513916016,0.333618164,0.107788086,-13.9160156,143.188477,-98.449707
495,2474992,2774992,495,-4357,2689,708,-246,2302,-1576,-0.531860352,0.32824707,0.0864257812,-15.0146484,140.50293,-96.1914062
496,2480000,2780000,496,-4490,2635,666,-258,2261,-1526,-0.548095703,0.321655273,0.0812988281,-15.7470703,138.000488,-93.1396484
497,2484992,2784992,497,-4667,2630,727,-275,2226,-1482,-0.569702148,0.321044922,0.0887451172,-16.784668,135.864258,-90.4541016
498,2490000,2790000,498,-4819,2600,733,-298,2181,-1444,-0.588256836,0.317382812,0.0894775391,-18.1884766,133.117676,-88.1347656
499,2494992,2794992,499,-4974,2536,723,-325,2128,-1403,-0.607177734,0.309570312,0.0882568359,-19.8364258,129.882812,-85.6323242
500,2500000,2800000,500,-5161,2478,775,-353,2086,-1367,-0.630004883,0.302490234,0.0946044922,-21.5454102,127.319336,-83.4350586
501,2504992,2804992,501,-5320,2413,816,-368,2048,-1330,-0.649414062,0.294555664,0.099609375,-22.4609375,125,-81.1767578
502,2510000,2810000,502,-5462,2414,861,-375,2006,-1292,-0.666748047,0.294677734,0.105102539,-22.8881836,122.436523,-78.8574219
503,2514992,2814992,503,-5554,2450,858,-376,1970,-1258,-0.677978516,0.299072266,0.104736328,-22.9492188,120.239258,-76.7822266
504,2520000,2820000,504,-5564,2407,675,-372,1927,-1219,-0.679199219,0.293823242,0.0823974609,-22.7050781,117.614746,-74.4018555
505,2524992,2824992,505,-5563,2304,342,-366,1876,-1176,-0.679077148,0.28125,0.0417480469,-22.3388672,114.501953,-71.7773438
506,2530000,2830000,506,-5569,2140,-65,-348,1834,-1134,-0.67980957,0.261230469,-0.00793457031,-21.2402344,111.938477,-69.2138672
507,2534992,2834992,507,-5620,1988,-357,-322,1810,-1094,-0.686035156,0.242675781,-0.0435791016,-19.6533203,110.473633,-66.7724609
508,2540000,2840000,508,-5754,1968,-477,-294,1809,-1059,-0.702392578,0.240234375,-0.0582275391,-17.9443359,110.412598,-64.6362305
509,2544992,2844992,509,-5809,1934,-618,-245,1805,-1026,-0.709106445,0.236083984,-0.0754394531,-14.9536133,110.168457,-62.6220703
510,2550000,2850000,510,-5755,1804,-839,-178,1780,-979,-0.702514648,0.220214844,-0.102416992,-10.8642578,108.642578,-59.753418
511,2554992,2854992,511,-5778,1678,-1091,-120,1749,-928,-0.705322266,0.204833984,-0.133178711,-7.32421875,106.750488,-56.640625
512,2560000,2860000,512,-5903,1589,-1322,-73,1729,-888,-0.720581055,0.193969727,-0.161376953,-4.45556641,105.529785,-54.1992188
513,2564992,2864992,513,-6027,1498,-1508,-21,1710,-854,-0.735717773,0.182861328,-0.184082031,-1.28173828,104.370117,-52.1240234
514,2570000,2870000,514,-6171,1427,-1612,37,1683,-815,-0.753295898,0.174194336,-0.196777344,2.25830078,102.722168,-49.7436523
515,2574992,2874992,515,-6388,1413,-1616,88,1661,-778,-0.779785156,0.172485352,-0.197265625,5.37109375,101.379395,-47.4853516
516,2580000,2880000,516,-6598,1371,-1592,140,1640,-752,-0.805419922,0.167358398,-0.194335938,8.54492188,100.097656,-45.8984375
517,2584992,2884992,517,-6773,1330,-1596,185,1602,-730,-0.826782227,0.162353516,-0.194824219,11.2915039,97.7783203,-44.5556641
518,2590000,2890000,518,-6912,1322,-1700,206,1547,-709,-0.84375,0.161376953,-0.207519531,12.5732422,94.4213867,-43.2739258
519,2594992,2894992,519,-7049,1292,-1826,211,1483,-687,-0.860473633,0.157714844,-0.222900391,12.878418,90.5151367,-41.9311523
520,2600000,2900000,520,-7221,1268,-1825,206,1421,-661,-0.881469727,0.154785156,-0.22277832,12.5732422,86.730957,-40.3442383
521,2604992,2904992,521,-7374,1305,-1755,196,1361,-632,-0.900146484,0.159301758,-0.214233398,11.9628906,83.0688477,-38.5742188
522,2610000,2910000,522,-7507,1418,-1600,181,1291,-606,-0.916381836,0.173095703,-0.1953125,11.0473633,78.7963867,-36.9873047
523,2614992,2914992,523,-7613,1547,-1437,144,1213,-587,-0.929321289,0.188842773,-0.175415039,8.7890625,74.0356445,-35.8276367
524,2620000,2920000,524,-7648,1613,-1429,74,1116,-569,-0.93359375,0.196899414,-0.174438477,4.51660156,68.1152344,-34.7290039
525,2624992,2924992,525,-7628,1593,-1547,-17,1002,-544,-0.931152344,0.194458008,-0.188842773,-1.03759766,61.1572266,-33.203125
526,2630000,2930000,526,-7615,1531,-1666,-112,890,-518,-0.92956543,0.186889648,-0.203369141,-6.8359375,54.3212891,-31.6162109
527,2634992,2934992,527,-7588,1456,-1761,-192,788,-495,-0.926269531,0.177734375,-0.21496582,-11.71875,48.0957031,-30.2124023
528,2640000,2940000,528,-7463,1317,-1914,-254,689,-467,-0.911010742,0.160766602,-0.233642578,-15.5029297,42.0532227,-28.503418
529,2644992,2944992,529,-7332,1169,-2143,-299,588,-429,-0.895019531,0.142700195,-0.26159668,-18.2495117,35.8886719,-26.184082
530,2650000,2950000,530,-7260,1097,-2344,-321,497,-390,-0.886230469,0.133911133,-0.286132812,-19.5922852,30.3344727,-23.8037109
531,2654992,2954992,531,-7181,1018,-2460,-315,422,-355,-0.876586914,0.124267578,-0.300292969,-19.2260742,25.7568359,-21.6674805
532,2660000,2960000,532,-7087,866,-2597,-280,349,-314,-0.865112305,0.105712891,-0.317016602,-17.0898438,21.3012695,-19.1650391
533,2664992,2964992,533,-6991,665,-2794,-222,273,-266,-0.853393555,0.0811767578,-0.341064453,-13.5498047,16.6625977,-16.2353516
534,2670000,2970000,534,-6902,450,-2987,-155,204,-217,-0.842529297,0.0549316406,-0.364624023,-9.46044922,12.4511719,-13.2446289
535,2674992,2974992,535,-6798,266,-3196,-83,141,-165,-0.829833984,0.0324707031,-0.390136719,-5.06591797,8.60595703,-10.0708008
536,2680000,2980000,536,-6647,139,-3404,3,79,-101,-0.811401367,0.0169677734,-0.415527344,0.183105469,4.82177734,-6.16455078
537,2684992,2984992,537,-6500,46,-3565,98,17,-27,-0.793457031,0.00561523438,-0.435180664,5.98144531,1.03759766,-1.64794922
538,2690000,2990000,538,-6360,-16,-3724,189,-49,52,-0.776367188,-0.001953125,-0.454589844,11.5356445,-2.99072266,3.17382812
539,2694992,2994992,539,-6209,-73,-3848,267,-115,131,-0.75793457,-0.00891113281,-0.469726562,16.2963867,-7.01904297,7.99560547
540,2700000,3000000,540,-6116,-149,-3844,325,-177,213,-0.746582031,-0.0181884766,-0.469238281,19.8364258,-10.8032227,13.0004883
541,2704992,3004992,541,-6078,-204,-3726,367,-239,297,-0.741943359,-0.0249023438,-0.454833984,22.3999023,-14.5874023,18.1274414
542,2710000,3010000,542,-6054,-216,-3541,399,-304,379,-0.739013672,-0.0263671875,-0.432250977,24.3530273,-18.5546875,23.1323242
543,2714992,3014992,543,-6039,-175,-3315,425,-374,461,-0.737182617,-0.0213623047,-0.404663086,25.9399414,-22.8271484,28.137207
544,2720000,3020000,544,-6037,-108,-3088,440,-449,545,-0.736938477,-0.0131835938,-0.376953125,26.8554688,-27.4047852,33.2641602
545,2724992,3024992,545,-6051,-55,-2907,442,-531,633,-0.738647461,-0.00671386719,-0.354858398,26.9775391,-32.409668,38.6352539
546,2730000,3030000,546,-6073,-42,-2782,435,-621,728,-0.741333008,-0.00512695312,-0.339599609,26.550293,-37.902832,44.4335938
547,2734992,3034992,547,-6074,-73,-2727,430,-719,830,-0.741455078,-0.00891113281,-0.332885742,26.2451172,-43.8842773,50.6591797
548,2740000,3040000,548,-6002,-111,-2729,432,-823,938,-0.732666016,-0.0135498047,-0.333129883,26.3671875,-50.2319336,57.2509766
549,2744992,3044992,549,-5857,-155,-2797,442,-920,1055,-0.71496582,-0.0189208984,-0.341430664,26.9775391,-56.1523438,64.3920898
550,2750000,3050000,550,-5693,-206,-2928,463,-1016,1178,-0.694946289,-0.0251464844,-0.357421875,28.2592773,-62.0117188,71.8994141
551,2754992,3054992,551,-5509,-246,-3020,501,-1115,1299,-0.672485352,-0.0300292969,-0.368652344,30.5786133,-68.0541992,79.284668
552,2760000,3060000,552,-5302,-299,-3063,544,-1204,1422,-0.647216797,-0.0364990234,-0.373901367,33.203125,-73.4863281,86.7919922
553,2764992,3064992,553,-5100,-379,-3135,591,-1287,1548,-0.622558594,-0.0462646484,-0.38269043,36.0717773,-78.5522461,94.4824219
554,2770000,3070000,554,-4910,-461,-3187,652,-1367,1672,-0.599365234,-0.0562744141,-0.389038086,39.7949219,-83.4350586,102.050781
555,2774992,3074992,555,-4745,-495,-3188,718,-1442,1798,-0.579223633,-0.0604248047,-0.389160156,43.8232422,-88.0126953,109.741211
556,2780000,3080000,556,-4604,-398,-3129,780,-1507,1919,-0.562011719,-0.0485839844,-0.381958008,47.6074219,-91.9799805,117.126465
557,2784992,3084992,557,-4534,-99,-2876,830,-1559,2029,-0.553466797,-0.0120849609,-0.351074219,50.6591797,-95.1538086,123.840332
558,2790000,3090000,558,-4549,481,-2280,863,-1599,2111,-0.555297852,0.0587158203,-0.278320312,52.6733398,-97.5952148,128.845215
559,2794992,3094992,559,-4571,1243,-1400,876,-1630,2173,-0.557983398,0.151733398,-0.170898438,53.4667969,-99.4873047,132.629395
560,2800000,3100000,560,-4604,1923,-559,864,-1675,2236,-0.562011719,0.234741211,-0.0682373047,52.734375,-102.233887,136.474609
561,2804992,3104992,561,-4699,2403,-35,820,-1750,2313,-0.573608398,0.293334961,-0.00427246094,50.0488281,-106.811523,141.174316
562,2810000,3110000,562,-4812,2720,101,737,-1855,2397,-0.587402344,0.33203125,0.0123291016,44.9829102,-113.220215,146.30127
563,2814992,3114992,563,-4888,2936,-28,629,-1977,2476,-0.596679688,0.358398438,-0.00341796875,38.3911133,-120.666504,151.123047
564,2820000,3120000,564,-4886,3065,-209,520,-2099,2551,-0.596435547,0.374145508,-0.0255126953,31.7382812,-128.112793,155.700684
565,2824992,3124992,565,-4785,3111,-265,423,-2207,2629,-0.584106445,0.379760742,-0.0323486328,25.8178711,-134.70459,160.461426
566,2830000,3130000,566,-4651,3135,-172,342,-2288,2701,-0.567749023,0.38269043,-0.0209960938,20.8740234,-139.648438,164.855957
567,2834992,3134992,567,-4471,3120,-91,274,-2341,2762,-0.545776367,0.380859375,-0.0111083984,16.7236328,-142.883301,168.579102
568,2840000,3140000,568,-4246,3046,-153,216,-2396,2824,-0.518310547,0.371826172,-0.0186767578,13.1835938,-146.240234,172.363281
569,2844992,3144992,569,-4024,2933,-384,173,-2471,2893,-0.491210938,0.358032227,-0.046875,10.559082,-150.817871,176.574707
570,2850000,3150000,570,-3809,2772,-737,154,-2553,2970,-0.46496582,0.338378906,-0.0899658203,9.39941406,-155.822754,181.274414
571,2854992,3154992,571,-3592,2624,-1018,161,-2626,3044,-0.438476562,0.3203125,-0.124267578,9.82666016,-160.27832,185.791016
572,2860000,3160000,572,-3372,2536,-1193,188,-2670,3109,-0.411621094,0.309570312,-0.145629883,11.4746094,-162.963867,189.758301
573,2864992,3164992,573,-3135,2488,-1308,239,-2687,3161,-0.38269043,0.303710938,-0.159667969,14.5874023,-164.001465,192.932129
574,2870000,3170000,574,-2870,2441,-1266,315,-2690,3205,-0.350341797,0.297973633,-0.154541016,19.2260742,-164.18457,195.617676
575,2874992,3174992,575,-2682,2465,-1007,382,-2667,3242,-0.327392578,0.30090332,-0.122924805,23.3154297,-162.780762,197.875977
576,2880000,3180000,576,-2617,2755,-489,413,-2615,3252,-0.319458008,0.336303711,-0.0596923828,25.2075195,-159.606934,198.486328
577,2884992,3184992,577,-2614,3346,174,414,-2546,3228,-0.319091797,0.408447266,0.0212402344,25.2685547,-155.395508,197.021484
578,2890000,3190000,578,-2614,4010,764,406,-2496,3199,-0.319091797,0.489501953,0.0932617188,24.7802734,-152.34375,195.251465
579,2894992,3194992,579,-2660,4512,1102,408,-2488,3201,-0.324707031,0.55078125,0.134521484,24.9023438,-151.855469,195.373535
580,2900000,3200000,580,-2778,4797,1259,414,-2516,3233,-0.339111328,0.585571289,0.153686523,25.2685547,-153.564453,197.32666
581,2904992,3204992,581,-2867,4986,1424,389,-2554,3274,-0.349975586,0.608642578,0.173828125,23.7426758,-155.883789,199.829102
582,2910000,3210000,582,-2918,5228,1705,327,-2573,3304,-0.356201172,0.638183594,0.208129883,19.9584961,-157.043457,201.660156
583,2914992,3214992,583,-2944,5525,2114,250,-2576,3322,-0.359375,0.674438477,0.258056641,15.2587891,-157.226562,202.758789
584,2920000,3220000,584,-2915,5788,2491,203,-2585,3337,-0.355834961,0.706542969,0.304077148,12.3901367,-157.775879,203.674316
585,2924992,3224992,585,-2829,5933,2738,213,-2614,3371,-0.345336914,0.724243164,0.334228516,13.0004883,-159.545898,205.749512
586,2930000,3230000,586,-2729,5968,2860,259,-2664,3425,-0.333129883,0.728515625,0.349121094,15.8081055,-162.597656,209.04541
587,2934992,3234992,587,-2614,6003,2906,301,-2708,3486,-0.319091797,0.732788086,0.354736328,18.371582,-165.283203,212.768555
588,2940000,3240000,588,-2471,6087,2873,330,-2730,3548,-0.301635742,0.743041992,0.350708008,20.1416016,-166.625977,216.552734
589,2944992,3244992,589,-2307,6209,2811,356,-2736,3608,-0.281616211,0.75793457,0.343139648,21.7285156,-166.992188,220.214844
590,2950000,3250000,590,-2102,6339,2792,373,-2739,3664,-0.256591797,0.773803711,0.340820312,22.7661133,-167.175293,223.632812
591,2954992,3254992,591,-1868,6493,2762,382,-2745,3703,-0.228027344,0.792602539,0.337158203,23.3154297,-167.541504,226.013184
592,2960000,3260000,592,-1584,6670,2732,389,-2750,3713,-0.193359375,0.814208984,0.333496094,23.7426758,-167.84668,226.623535
593,2964992,3264992,593,-1278,6835,2812,395,-2737,3697,-0.156005859,0.834350586,0.343261719,24.1088867,-167.053223,225.646973
594,2970000,3270000,594,-1012,7018,3021,399,-2697,3654,-0.123535156,0.856689453,0.368774414,24.3530273,-164.611816,223.022461
595,2974992,3274992,595,-834,7315,3407,399,-2633,3585,-0.101806641,0.892944336,0.415893555,24.3530273,-160.705566,218.811035
596,2980000,3280000,596,-733,7800,3922,394,-2556,3496,-0.0894775391,0.952148438,0.478759766,24.0478516,-156.005859,213.378906
597,2984992,3284992,597,-608,8416,4366,388,-2492,3405,-0.07421875,1.02734375,0.532958984,23.6816406,-152.099609,207.824707
598,2990000,3290000,598,-501,9063,4758,394,-2449,3328,-0.0611572266,1.10632324,0.580810547,24.0478516,-149.475098,203.125
599,2994992,3294992,599,-466,9596,5292,388,-2408,3268,-0.0568847656,1.17138672,0.645996094,23.6816406,-146.972656,199.462891
600,3000000,3300000,600,-479,10040,5902,342,-2384,3205,-0.0584716797,1.22558594,0.720458984,20.8740234,-145.507812,195.617676
601,3004992,3304992,601,-430,10455,6361,258,-2399,3137,-0.0524902344,1.27624512,0.776489258,15.7470703,-146.42334,191.467285
602,3010000,3310000,602,-272,10730,6629,169,-2437,3091,-0.033203125,1.30981445,0.809204102,10.3149414,-148.742676,188.659668
603,3014992,3314992,603,-92,10801,6745,116,-2483,3078,-0.0112304688,1.31848145,0.823364258,7.08007812,-151.550293,187.866211
604,3020000,3320000,604,42,10636,6750,123,-2520,3082,0.00512695312,1.29833984,0.823974609,7.50732422,-153.808594,188.110352
605,3024992,3324992,605,143,10306,6632,181,-2547,3092,0.0174560547,1.25805664,0.809570312,11.0473633,-155.456543,188.720703
606,3030000,3330000,606,265,9895,6366,272,-2566,3099,0.0323486328,1.20788574,0.777099609,16.6015625,-156.616211,189.147949
607,3034992,3334992,607,430,9417,5951,390,-2580,3115,0.0524902344,1.14953613,0.72644043,23.8037109,-157.470703,190.124512
608,3040000,3340000,608,611,8987,5369,532,-2597,3145,0.0745849609,1.0970459,0.655395508,32.4707031,-158.508301,191.955566
609,3044992,3344992,609,781,8748,4753,711,-2604,3157,0.0953369141,1.06787109,0.580200195,43.3959961,-158.935547,192.687988
610,3050000,3350000,610,1083,8610,4338,919,-2576,3141,0.132202148,1.05102539,0.529541016,56.0913086,-157.226562,191.711426
611,3054992,3354992,611,1520,8428,4052,1114,-2522,3112,0.185546875,1.02880859,0.494628906,67.9931641,-153.930664,189.941406
612,3060000,3360000,612,1816,8273,3704,1280,-2468,3082,0.221679688,1.0098877,0.452148438,78.125,-150.634766,188.110352
613,3064992,3364992,613,2020,8189,3284,1410,-2438,3040,0.246582031,0.999633789,0.400878906,86.0595703,-148.803711,185.546875
614,3070000,3370000,614,2311,8097,2874,1488,-2430,2978,0.282104492,0.98840332,0.350830078,90.8203125,-148.31543,181.762695
615,3074992,3374992,615,2586,7949,2486,1516,-2412,2901,0.315673828,0.970336914,0.303466797,92.5292969,-147.216797,177.062988
616,3080000,3380000,616,2776,7775,2132,1525,-2372,2811,0.338867188,0.94909668,0.260253906,93.0786133,-144.775391,171.569824
617,3084992,3384992,617,2898,7570,1898,1528,-2322,2709,0.353759766,0.924072266,0.231689453,93.2617188,-141.723633,165.344238
618,3090000,3390000,618,3011,7424,1737,1517,-2281,2598,0.367553711,0.90625,0.212036133,92.590332,-139.221191,158.569336
619,3094992,3394992,619,3172,7466,1601,1501,-2246,2481,0.387207031,0.911376953,0.19543457,91.6137695,-137.084961,151.428223
620,3100000,3400000,620,3390,7654,1483,1480,-2213,2373,0.413818359,0.934326172,0.181030273,90.3320312,-135.070801,144.836426
621,3104992,3404992,621,3650,7892,1422,1454,-2189,2293,0.445556641,0.963378906,0.173583984,88.7451172,-133.605957,139.953613
622,3110000,3410000,622,3891,8106,1473,1432,-2167,2254,0.474975586,0.989501953,0.17980957,87.4023438,-132.263184,137.573242
623,3114992,3414992,623,4089,8315,1661,1413,-2144,2254,0.499145508,1.01501465,0.202758789,86.2426758,-130.859375,137.573242
624,3120000,3420000,624,4304,8618,1976,1386,-2123,2280,0.525390625,1.05200195,0.241210938,84.5947266,-129.577637,139.160156
625,3124992,3424992,625,4529,8991,2368,1348,-2106,2318,0.552856445,1.09753418,0.2890625,82.2753906,-128.540039,141.479492
626,3130000,3430000,626,4751,9310,2751,1299,-2107,2367,0.579956055,1.13647461,0.33581543,79.284668,-128.601074,144.470215
627,3134992,3434992,627,4950,9558,3101,1238,-2121,2424,0.604248047,1.16674805,0.378540039,75.5615234,-129.455566,147.949219
628,3140000,3440000,628,5072,9769,3366,1147,-2144,2480,0.619140625,1.19250488,0.410888672,70.0073242,-130.859375,151.367188
629,3144992,3444992,629,5168,9982,3458,1025,-2179,2528,0.630859375,1.21850586,0.422119141,62.5610352,-132.995605,154.296875
630,3150000,3450000,630,5295,10166,3484,891,-2209,2573,0.646362305,1.2409668,0.425292969,54.3823242,-134.82666,157.043457
631,3154992,3454992,631,5409,10247,3526,741,-2224,2623,0.66027832,1.25085449,0.430419922,45.2270508,-135.742188,160.095215
632,3160000,3460000,632,5469,10193,3458,583,-2233,2671,0.667602539,1.2442627,0.422119141,35.5834961,-136.291504,163.024902
633,3164992,3464992,633,5521,10079,3234,442,-2244,2708,0.673950195,1.23034668,0.394775391,26.9775391,-136.962891,165.283203
634,3170000,3470000,634,5630,9983,2967,322,-2250,2738,0.687255859,1.21862793,0.362182617,19.6533203,-137.329102,167.114258
635,3174992,3474992,635,5806,9922,2749,214,-2247,2757,0.708740234,1.21118164,0.335571289,13.0615234,-137.145996,168.273926
636,3180000,3480000,636,5950,9880,2527,109,-2239,2753,0.726318359,1.20605469,0.30847168,6.65283203,-136.657715,168.029785
637,3184992,3484992,637,6062,9789,2301,6,-2236,2732,0.739990234,1.19494629,0.280883789,0.366210938,-136.474609,166.748047
638,3190000,3490000,638,6211,9631,2180,-92,-2231,2697,0.758178711,1.17565918,0.266113281,-5.61523438,-136.169434,164.611816
639,3194992,3494992,639,6314,9429,2095,-177,-2209,2651,0.770751953,1.15100098,0.255737305,-10.8032227,-134.82666,161.804199
640,3200000,3500000,640,6345,9193,2096,-243,-2173,2591,0.774536133,1.12219238,0.255859375,-14.831543,-132.629395,158.14209
641,3204992,3504992,641,6325,8977,2236,-299,-2122,2509,0.772094727,1.0958252,0.272949219,-18.2495117,-129.516602,153.137207
642,3210000,3510000,642,6237,8870,2421,-335,-2049,2396,0.761352539,1.08276367,0.295532227,-20.4467773,-125.061035,146.240234
643,3214992,3514992,643,6050,8917,2592,-352,-1973,2259,0.738525391,1.08850098,0.31640625,-21.484375,-120.422363,137.878418
644,3220000,3520000,644,5822,9120,2732,-357,-1910,2120,0.710693359,1.11328125,0.333496094,-21.7895508,-116.577148,129.394531
645,3224992,3524992,645,5683,9434,2932,-365,-1843,1988,0.693725586,1.15161133,0.357910156,-22.277832,-112.487793,121.337891
646,3230000,3530000,646,5649,9765,3202,-404,-1758,1864,0.689575195,1.1920166,0.390869141,-24.6582031,-107.299805,113.769531
647,3234992,3534992,647,5596,10054,3412,-469,-1667,1752,0.683105469,1.22729492,0.416503906,-28.6254883,-101.745605,106.933594
648,3240000,3540000,648,5460,10286,3527,-523,-1591,1648,0.666503906,1.25561523,0.430541992,-31.9213867,-97.1069336,100.585938
649,3244992,3544992,649,5299,10385,3638,-550,-1533,1556,0.646850586,1.2677002,0.444091797,-33.5693359,-93.5668945,94.9707031
650,3250000,3550000,650,5158,10302,3766,-564,-1476,1483,0.629638672,1.25756836,0.459716797,-34.4238281,-90.0878906,90.5151367
651,3254992,3554992,651,5029,10124,3845,-569,-1404,1419,0.613891602,1.23583984,0.469360352,-34.7290039,-85.6933594,86.6088867
652,3260000,3560000,652,4873,9919,3832,-560,-1323,1353,0.594848633,1.21081543,0.467773438,-34.1796875,-80.7495117,82.5805664
653,3264992,3564992,653,4771,9784,3686,-537,-1243,1283,0.582397461,1.19433594,0.449951172,-32.7758789,-75.8666992,78.3081055
654,3270000,3570000,654,4747,9656,3408,-486,-1165,1216,0.579467773,1.17871094,0.416015625,-29.6630859,-71.105957,74.21875
655,3274992,3574992,655,4814,9377,3074,-406,-1090,1169,0.587646484,1.14465332,0.375244141,-24.7802734,-66.5283203,71.3500977
656,3280000,3580000,656,4969,8988,2651,-312,-1035,1130,0.606567383,1.09716797,0.323608398,-19.0429688,-63.1713867,68.9697266
657,3284992,3584992,657,5067,8588,2117,-211,-976,1077,0.618530273,1.04833984,0.258422852,-12.878418,-59.5703125,65.7348633
658,3290000,3590000,658,5114,8326,1632,-122,-899,998,0.624267578,1.01635742,0.19921875,-7.44628906,-54.8706055,60.9130859
659,3294992,3594992,659,5321,8128,1217,-75,-820,903,0.649536133,0.9921875,0.14855957,-4.57763672,-50.0488281,55.1147461
660,3300000,3600000,660,5577,7858,809,-62,-726,814,0.680786133,0.959228516,0.0987548828,-3.78417969,-44.3115234,49.6826172
661,3304992,3604992,661,5637,7586,453,-74,-616,716,0.688110352,0.926025391,0.0552978516,-4.51660156,-37.5976562,43.7011719
662,3310000,3610000,662,5574,7375,73,-107,-504,594,0.680419922,0.900268555,0.00891113281,-6.53076172,-30.7617188,36.2548828
663,3314992,3614992,663,5466,7324,-165,-144,-372,458,0.667236328,0.894042969,-0.0201416016,-8.7890625,-22.7050781,27.9541016
664,3320000,3620000,664,5286,7548,8,-195,-212,329,0.645263672,0.921386719,0.0009765625,-11.9018555,-12.9394531,20.0805664
665,3324992,3624992,665,5065,7870,359,-254,-69,223,0.618286133,0.960693359,0.0438232422,-15.5029297,-4.21142578,13.6108398
666,3330000,3630000,666,4867,8103,795,-262,28,147,0.594116211,0.989135742,0.0970458984,-15.9912109,1.70898438,8.97216797
667,3334992,3634992,667,4654,8280,1364,-230,62,97,0.568115234,1.01074219,0.166503906,-14.0380859,3.78417969,5.92041016
668,3340000,3640000,668,4450,8353,1752,-185,38,77,0.543212891,1.01965332,0.213867188,-11.2915039,2.31933594,4.69970703
669,3344992,3644992,669,4294,8348,1895,-123,-12,80,0.524169922,1.01904297,0.231323242,-7.50732422,-0.732421875,4.8828125
670,3350000,3650000,670,4240,8287,1963,-50,-61,91,0.517578125,1.01159668,0.239624023,-3.05175781,-3.72314453,5.55419922
671,3354992,3654992,671,4253,8182,1978,22,-96,103,0.519165039,0.998779297,0.241455078,1.34277344,-5.859375,6.28662109
672,3360000,3660000,672,4303,8060,1853,85,-115,103,0.525268555,0.983886719,0.226196289,5.18798828,-7.01904297,6.28662109
673,3364992,3664992,673,4383,7954,1759,154,-122,90,0.53503418,0.970947266,0.21472168,9.39941406,-7.44628906,5.49316406
674,3370000,3670000,674,4452,7942,1791,192,-119,65,0.543457031,0.969482422,0.21862793,11.71875,-7.26318359,3.96728516
675,3374992,3674992,675,4521,8014,1814,195,-110,28,0.551879883,0.978271484,0.221435547,11.9018555,-6.71386719,1.70898438
676,3380000,3680000,676,4606,8170,1910,191,-95,-16,0.562255859,0.997314453,0.233154297,11.6577148,-5.79833984,-0.9765625
677,3384992,3684992,677,4679,8357,2057,169,-86,-55,0.571166992,1.0201416,0.251098633,10.3149414,-5.24902344,-3.35693359
678,3390000,3690000,678,4743,8481,2145,127,-96,-82,0.578979492,1.03527832,0.26184082,7.75146484,-5.859375,-5.00488281
679,3394992,3694992,679,4848,8498,2150,81,-112,-103,0.591796875,1.03735352,0.262451172,4.94384766,-6.8359375,-6.28662109
680,3400000,3700000,680,4964,8406,2142,43,-109,-126,0.605957031,1.02612305,0.261474609,2.62451172,-6.65283203,-7.69042969
681,3404992,3704992,681,5032,8286,2153,8,-80,-160,0.614257812,1.01147461,0.262817383,0.48828125,-4.8828125,-9.765625
682,3410000,3710000,682,5073,8191,2136,-4,-36,-208,0.619262695,0.99987793,0.260742188,-0.244140625,-2.19726562,-12.6953125
683,3414992,3714992,683,5108,8166,2191,5,29,-277,0.623535156,0.996826172,0.267456055,0.305175781,1.77001953,-16.9067383
684,3420000,3720000,684,5107,8200,2314,6,107,-363,0.623413086,1.00097656,0.282470703,0.366210938,6.53076172,-22.1557617
685,3424992,3724992,685,5070,8249,2417,-10,187,-463,0.618896484,1.00695801,0.295043945,-0.610351562,11.4135742,-28.2592773
686,3430000,3730000,686,5010,8322,2567,-34,270,-576,0.611572266,1.01586914,0.313354492,-2.07519531,16.4794922,-35.15625
687,3434992,3734992,687,4901,8461,2694,-66,354,-703,0.598266602,1.03283691,0.328857422,-4.02832031,21.6064453,-42.9077148
688,3440000,3740000,688,4776,8725,2735,-103,422,-844,0.583007812,1.06506348,0.333862305,-6.28662109,25.7568359,-51.5136719
689,3444992,3744992,689,4744,9014,2773,-164,473,-983,0.579101562,1.1003418,0.338500977,-10.0097656,28.8696289,-59.9975586
690,3450000,3750000,690,4842,9245,2826,-253,523,-1097,0.591064453,1.12854004,0.344970703,-15.4418945,31.9213867,-66.9555664
691,3454992,3754992,691,4963,9412,2859,-349,580,-1195,0.605834961,1.14892578,0.348999023,-21.3012695,35.4003906,-72.9370117
692,3460000,3760000,692,5044,9532,2930,-443,649,-1300,0.615722656,1.16357422,0.357666016,-27.0385742,39.6118164,-79.3457031
693,3464992,3764992,693,5125,9662,3067,-541,732,-1422,0.625610352,1.17944336,0.374389648,-33.0200195,44.6777344,-86.7919922
694,3470000,3770000,694,5207,9815,3169,-647,827,-1556,0.635620117,1.19812012,0.38684082,-39.4897461,50.4760742,-94.9707031
695,3474992,3774992,695,5281,9948,3211,-769,913,-1693,0.64465332,1.21435547,0.391967773,-46.9360352,55.7250977,-103.33252
696,3480000,3780000,696,5416,10010,3132,-910,978,-1826,0.661132812,1.22192383,0.382324219,-55.5419922,59.6923828,-111.450195
697,3484992,3784992,697,5641,10042,2956,-1044,1042,-1951,0.688598633,1.22583008,0.360839844,-63.7207031,63.5986328,-119.07959
698,3490000,3790000,698,5897,10071,2795,-1161,1122,-2065,0.719848633,1.22937012,0.341186523,-70.8618164,68.4814453,-126.037598
699,3494992,3794992,699,6154,10069,2725,-1271,1227,-2173,0.751220703,1.22912598,0.332641602,-77.5756836,74.8901367,-132.629395
700,3500000,3800000,700,6418,10018,2762,-1376,1353,-2284,0.783447266,1.22290039,0.337158203,-83.984375,82.5805664,-139.404297
701,3504992,3804992,701,6645,9935,2810,-1471,1477,-2396,0.811157227,1.21276855,0.343017578,-89.7827148,90.1489258,-146.240234
702,3510000,3810000,702,6789,9851,2862,-1552,1593,-2508,0.828735352,1.20251465,0.349365234,-94.7265625,97.2290039,-153.076172
703,3514992,3814992,703,6867,9789,2955,-1632,1711,-2615,0.838256836,1.19494629,0.360717773,-99.609375,104.431152,-159.606934
704,3520000,3820000,704,6894,9759,3110,-1727,1834,-2724,0.841552734,1.19128418,0.379638672,-105.407715,111.938477,-166.259766
705,3524992,3824992,705,6944,9709,3251,-1836,1949,-2835,0.84765625,1.18518066,0.396850586,-112.060547,118.95752,-173.034668
706,3530000,3830000,706,7007,9600,3326,-1941,2047,-2938,0.85534668,1.171875,0.406005859,-118.469238,124.938965,-179.321289
707,3534992,3834992,707,7044,9480,3327,-2030,2121,-3033,0.859863281,1.15722656,0.40612793,-123.901367,129.455566,-185.119629
708,3540000,3840000,708,7084,9387,3261,-2098,2175,-3122,0.864746094,1.14587402,0.398071289,-128.051758,132.751465,-190.551758
709,3544992,3844992,709,7149,9304,3191,-2147,2225,-3194,0.872680664,1.13574219,0.389526367,-131.04248,135.803223,-194.946289
710,3550000,3850000,710,7205,9198,3188,-2177,2287,-3242,0.879516602,1.12280273,0.389160156,-132.873535,139.587402,-197.875977
711,3554992,3854992,711,7190,9038,3261,-2183,2359,-3276,0.877685547,1.10327148,0.398071289,-133.239746,143.981934,-199.951172
712,3560000,3860000,712,7092,8819,3345,-2157,2423,-3299,0.865722656,1.07653809,0.408325195,-131.652832,147.888184,-201.35498
713,3564992,3864992,713,6897,8556,3412,-2093,2475,-3297,0.841918945,1.04443359,0.416503906,-127.746582,151.062012,-201.23291
714,3570000,3870000,714,6606,8329,3583,-2007,2522,-3272,0.806396484,1.01672363,0.43737793,-122.497559,153.930664,-199.707031
715,3574992,3874992,715,6224,8211,3853,-1917,2577,-3244,0.759765625,1.00231934,0.470336914,-117.004395,157.287598,-197.998047
716,3580000,3880000,716,5841,8148,4032,-1820,2626,-3212,0.713012695,0.994628906,0.4921875,-111.083984,160.27832,-196.044922
717,3584992,3884992,717,5534,8115,4083,-1705,2650,-3163,0.675537109,0.990600586,0.498413086,-104.064941,161.743164,-193.054199
718,3590000,3890000,718,5265,8104,4067,-1585,2655,-3096,0.642700195,0.989257812,0.496459961,-96.7407227,162.04834,-188.964844
719,3594992,3894992,719,5029,8053,4040,-1483,2663,-3008,0.613891602,0.983032227,0.493164062,-90.5151367,162.536621,-183.59375
720,3600000,3900000,720,4774,8042,4155,-1390,2699,-2909,0.582763672,0.981689453,0.507202148,-84.8388672,164.733887,-177.55127
721,3604992,3904992,721,4442,8109,4465,-1307,2753,-2823,0.542236328,0.989868164,0.545043945,-79.7729492,168.029785,-172.302246
722,3610000,3910000,722,4118,8153,4849,-1233,2792,-2752,0.502685547,0.995239258,0.591918945,-75.2563477,170.410156,-167.96875
723,3614992,3914992,723,3846,8148,5211,-1163,2805,-2687,0.469482422,0.994628906,0.636108398,-70.9838867,171.203613,-164.001465
724,3620000,3920000,724,3584,8191,5403,-1101,2805,-2639,0.4375,0.99987793,0.659545898,-67.199707,171.203613,-161.071777
725,3624992,3924992,725,3383,8332,5337,-1055,2801,-2613,0.412963867,1.01708984,0.651489258,-64.3920898,170.959473,-159.484863
726,3630000,3930000,726,3264,8460,5106,-1030,2807,-2583,0.3984375,1.03271484,0.623291016,-62.8662109,171.325684,-157.653809
727,3634992,3934992,727,3158,8529,4916,-1031,2826,-2544,0.385498047,1.0411377,0.600097656,-62.9272461,172.485352,-155.273438
728,3640000,3940000,728,3042,8631,4831,-1053,2864,-2512,0.371337891,1.05358887,0.58972168,-64.2700195,174.804688,-153.320312
729,3644992,3944992,729,2949,8781,4736,-1073,2912,-2495,0.359985352,1.07189941,0.578125,-65.4907227,177.734375,-152.282715
730,3650000,3950000,730,2896,8862,4563,-1085,2947,-2480,0.353515625,1.08178711,0.557006836,-66.2231445,179.870605,-151.367188
731,3654992,3954992,731,2847,8802,4310,-1090,2973,-2455,0.34753418,1.07446289,0.526123047,-66.5283203,181.45752,-149.841309
732,3660000,3960000,732,2720,8588,4033,-1077,3007,-2433,0.33203125,1.04833984,0.49230957,-65.7348633,183.532715,-148.498535
733,3664992,3964992,733,2451,8188,3852,-1048,3054,-2418,0.299194336,0.999511719,0.470214844,-63.9648438,186.401367,-147.583008
734,3670000,3970000,734,2036,7671,3818,-1003,3112,-2409,0.248535156,0.936401367,0.466064453,-61.2182617,189.941406,-147.033691
735,3674992,3974992,735,1511,7256,3884,-928,3182,-2413,0.184448242,0.885742188,0.474121094,-56.640625,194.213867,-147.277832
736,3680000,3980000,736,995,7039,4011,-826,3249,-2428,0.121459961,0.85925293,0.489624023,-50.4150391,198.303223,-148.193359
737,3684992,3984992,737,584,7004,4234,-716,3302,-2439,0.0712890625,0.854980469,0.516845703,-43.7011719,201.538086,-148.864746
738,3690000,3990000,738,242,7119,4478,-615,3348,-2446,0.0295410156,0.869018555,0.546630859,-37.5366211,204.345703,-149.291992
739,3694992,3994992,739,-43,7235,4583,-520,3372,-2446,-0.00524902344,0.883178711,0.559448242,-31.7382812,205.810547,-149.291992
740,3700000,4000000,740,-254,7206,4533,-427,3364,-2425,-0.0310058594,0.879638672,0.553344727,-26.0620117,205.322266,-148.010254
741,3704992,4004992,741,-477,7019,4366,-338,3339,-2382,-0.0582275391,0.856811523,0.532958984,-20.6298828,203.796387,-145.385742
742,3710000,4010000,742,-737,6755,4196,-259,3323,-2344,-0.0899658203,0.824584961,0.512207031,-15.8081055,202.819824,-143.066406
743,3714992,4014992,743,-1024,6513,4052,-185,3318,-2321,-0.125,0.795043945,0.494628906,-11.2915039,202.514648,-141.662598
744,3720000,4020000,744,-1336,6353,3934,-111,3308,-2307,-0.163085938,0.775512695,0.480224609,-6.77490234,201.904297,-140.808105
745,3724992,4024992,745,-1631,6273,3881,-42,3292,-2295,-0.19909668,0.76574707,0.473754883,-2.56347656,200.927734,-140.075684
746,3730000,4030000,746,-1849,6221,3917,14,3268,-2282,-0.225708008,0.759399414,0.478149414,0.854492188,199.462891,-139.282227
747,3734992,4034992,747,-1985,6163,3962,54,3237,-2269,-0.24230957,0.752319336,0.483642578,3.29589844,197.570801,-138.48877
748,3740000,4040000,748,-2089,6131,3923,82,3201,-2256,-0.255004883,0.748413086,0.478881836,5.00488281,195.373535,-137.695312
749,3744992,4044992,749,-2204,6232,3902,95,3166,-2250,-0.269042969,0.760742188,0.476318359,5.79833984,193.237305,-137.329102
750,3750000,4050000,750,-2294,6490,3926,77,3132,-2259,-0.280029297,0.792236328,0.479248047,4.69970703,191.162109,-137.878418
751,3754992,4054992,751,-2257,6770,3936,27,3089,-2271,-0.275512695,0.826416016,0.48046875,1.64794922,188.537598,-138.61084
752,3760000,4060000,752,-2133,6920,3897,-50,3034,-2267,-0.260375977,0.844726562,0.475708008,-3.05175781,185.180664,-138.366699
753,3764992,4064992,753,-2016,6870,3730,-145,2973,-2247,-0.24609375,0.838623047,0.455322266,-8.85009766,181.45752,-137.145996
754,3770000,4070000,754,-1966,6662,3442,-246,2912,-2224,-0.239990234,0.813232422,0.420166016,-15.0146484,177.734375,-135.742188
755,3774992,4074992,755,-1994,6308,3086,-331,2859,-2200,-0.243408203,0.770019531,0.376708984,-20.2026367,174.499512,-134.277344
756,3780000,4080000,756,-2061,5838,2686,-380,2814,-2168,-0.251586914,0.712646484,0.327880859,-23.1933594,171.75293,-132.324219
757,3784992,4084992,757,-2126,5303,2373,-393,2773,-2128,-0.259521484,0.647338867,0.289672852,-23.9868164,169.250488,-129.882812
758,3790000,4090000,758,-2251,4822,2121,-387,2743,-2090,-0.274780273,0.588623047,0.258911133,-23.6206055,167.419434,-127.563477
759,3794992,4094992,759,-2365,4439,1915,-362,2723,-2055,-0.288696289,0.541870117,0.233764648,-22.0947266,166.19873,-125.427246
760,3800000,4100000,760,-2497,4201,1877,-329,2716,-2025,-0.30480957,0.512817383,0.229125977,-20.0805664,165.771484,-123.596191
761,3804992,4104992,761,-2673,4123,1873,-300,2720,-2007,-0.326293945,0.503295898,0.228637695,-18.3105469,166.015625,-122.497559
762,3810000,4110000,762,-2709,3992,1726,-253,2708,-1990,-0.330688477,0.487304688,0.210693359,-15.4418945,165.283203,-121.459961
763,3814992,4114992,763,-2653,3754,1400,-178,2676,-1950,-0.323852539,0.458251953,0.170898438,-10.8642578,163.330078,-119.018555
764,3820000,4120000,764,-2641,3501,983,-84,2637,-1891,-0.322387695,0.427368164,0.119995117,-5.12695312,160.949707,-115.41748
765,3824992,4124992,765,-2780,3318,646,-3,2608,-1841,-0.339355469,0.405029297,0.0788574219,-0.183105469,159.179688,-112.365723
766,3830000,4130000,766,-2974,3220,446,35,2593,-1809,-0.363037109,0.393066406,0.0544433594,2.13623047,158.26416,-110.412598
767,3834992,4134992,767,-3140,3186,367,50,2582,-1775,-0.383300781,0.388916016,0.0447998047,3.05175781,157.592773,-108.337402
768,3840000,4140000,768,-3345,3239,473,60,2569,-1735,-0.408325195,0.395385742,0.0577392578,3.66210938,156.799316,-105.895996
769,3844992,4144992,769,-3581,3380,666,63,2553,-1706,-0.437133789,0.412597656,0.0812988281,3.84521484,155.822754,-104.125977
770,3850000,4150000,770,-3804,3544,824,53,2519,-1691,-0.464355469,0.432617188,0.100585938,3.23486328,153.747559,-103.210449
771,3854992,4154992,771,-4032,3708,999,16,2473,-1678,-0.4921875,0.452636719,0.121948242,0.9765625,150.939941,-102.416992
772,3860000,4160000,772,-4264,3783,1080,-49,2425,-1667,-0.520507812,0.461791992,0.131835938,-2.99072266,148.010254,-101.745605
773,3864992,4164992,773,-4436,3674,1028,-112,2355,-1642,-0.541503906,0.448486328,0.125488281,-6.8359375,143.737793,-100.219727
774,3870000,4170000,774,-4589,3537,957,-173,2272,-1600,-0.560180664,0.431762695,0.116821289,-10.559082,138.671875,-97.65625
775,3874992,4174992,775,-4757,3436,782,-232,2190,-1561,-0.580688477,0.419433594,0.0954589844,-14.1601562,133.666992,-95.2758789
776,3880000,4180000,776,-4862,3269,545,-280,2105,-1513,-0.593505859,0.399047852,0.0665283203,-17.0898438,128.479004,-92.3461914
777,3884992,4184992,777,-4948,3118,432,-315,2031,-1452,-0.604003906,0.380615234,0.052734375,-19.2260742,123.962402,-88.6230469
778,3890000,4190000,778,-5056,3074,392,-340,1980,-1397,-0.6171875,0.375244141,0.0478515625,-20.7519531,120.849609,-85.2661133
779,3894992,4194992,779,-5139,3114,404,-353,1936,-1346,-0.627319336,0.380126953,0.0493164062,-21.5454102,118.164062,-82.1533203
780,3900000,4200000,780,-5231,3278,520,-369,1890,-1300,-0.638549805,0.400146484,0.0634765625,-22.5219727,115.356445,-79.3457031
781,3904992,4204992,781,-5320,3484,693,-398,1850,-1268,-0.649414062,0.425292969,0.0845947266,-24.2919922,112.915039,-77.3925781
782,3910000,4210000,782,-5367,3525,758,-433,1804,-1234,-0.655151367,0.430297852,0.0925292969,-26.4282227,110.107422,-75.3173828
783,3914992,4214992,783,-5434,3482,744,-468,1746,-1191,-0.663330078,0.425048828,0.0908203125,-28.5644531,106.567383,-72.6928711
784,3920000,4220000,784,-5552,3555,743,-508,1706,-1169,-0.677734375,0.433959961,0.0906982422,-31.0058594,104.125977,-71.3500977
785,3924992,4224992,785,-5578,3521,538,-532,1668,-1159,-0.680908203,0.42980957,0.0656738281,-32.4707031,101.806641,-70.7397461
786,3930000,4230000,786,-5536,3263,104,-516,1609,-1133,-0.67578125,0.39831543,0.0126953125,-31.4941406,98.2055664,-69.152832
787,3934992,4234992,787,-5559,2971,-330,-472,1569,-1104,-0.678588867,0.362670898,-0.0402832031,-28.8085938,95.7641602,-67.3828125
788,3940000,4240000,788,-5623,2737,-586,-417,1568,-1089,-0.686401367,0.334106445,-0.0715332031,-25.4516602,95.703125,-66.4672852
789,3944992,4244992,789,-5727,2635,-581,-360,1598,-1086,-0.69909668,0.321655273,-0.0709228516,-21.9726562,97.5341797,-66.2841797
790,3950000,4250000,790,-5827,2598,-624,-290,1627,-1085,-0.711303711,0.317138672,-0.076171875,-17.7001953,99.3041992,-66.2231445
791,3954992,4254992,791,-5874,2537,-835,-196,1623,-1074,-0.717041016,0.309692383,-0.101928711,-11.9628906,99.0600586,-65.5517578
792,3960000,4260000,792,-5950,2506,-986,-122,1609,-1058,-0.726318359,0.305908203,-0.120361328,-7.44628906,98.2055664,-64.5751953
793,3964992,4264992,793,-6049,2457,-1162,-88,1600,-1047,-0.73840332,0.299926758,-0.141845703,-5.37109375,97.65625,-63.9038086
794,3970000,4270000,794,-6127,2405,-1238,-69,1586,-1030,-0.747924805,0.293579102,-0.151123047,-4.21142578,96.8017578,-62.8662109
795,3974992,4274992,795,-6258,2403,-1096,-62,1583,-1013,-0.763916016,0.293334961,-0.133789062,-3.78417969,96.6186523,-61.8286133
796,3980000,4280000,796,-6422,2363,-1000,-55,1581,-999,-0.783935547,0.288452148,-0.122070312,-3.35693359,96.496582,-60.9741211
797,3984992,4284992,797,-6507,2246,-1115,-30,1556,-973,-0.794311523,0.274169922,-0.136108398,-1.83105469,94.9707031,-59.387207
798,3990000,4290000,798,-6518,2061,-1374,2,1507,-928,-0.795654297,0.251586914,-0.167724609,0.122070312,91.9799805,-56.640625
799,3994992,4294992,799,-6537,1874,-1524,12,1455,-874,-0.797973633,0.228759766,-0.186035156,0.732421875,88.8061523,-53.3447266
800,4000000,4300000,800,-6597,1717,-1560,-5,1419,-823,-0.805297852,0.209594727,-0.190429688,-0.305175781,86.6088867,-50.2319336
801,4004992,4304992,801,-6657,1511,-1657,-10,1385,-764,-0.81262207,0.184448242,-0.202270508,-0.610351562,84.5336914,-46.6308594
802,4010000,4310000,802,-6731,1287,-1789,19,1336,-692,-0.821655273,0.157104492,-0.218383789,1.15966797,81.5429688,-42.2363281
803,4014992,4314992,803,-6773,1135,-1954,53,1272,-621,-0.826782227,0.138549805,-0.238525391,3.23486328,77.6367188,-37.902832
804,4020000,4320000,804,-6817,1050,-2115,64,1210,-556,-0.83215332,0.128173828,-0.258178711,3.90625,73.8525391,-33.9355469
805,4024992,4324992,805,-6897,994,-2271,54,1155,-494,-0.841918945,0.121337891,-0.27722168,3.29589844,70.4956055,-30.1513672
806,4030000,4330000,806,-6864,982,-2416,46,1084,-426,-0.837890625,0.119873047,-0.294921875,2.80761719,66.1621094,-26.0009766
807,4034992,4334992,807,-6803,1035,-2462,29,996,-359,-0.830444336,0.126342773,-0.300537109,1.77001953,60.7910156,-21.9116211
808,4040000,4340000,808,-6801,1085,-2530,-14,908,-306,-0.830200195,0.132446289,-0.308837891,-0.854492188,55.4199219,-18.6767578
809,4044992,4344992,809,-6805,1100,-2679,-63,818,-260,-0.830688477,0.134277344,-0.327026367,-3.84521484,49.9267578,-15.8691406
810,4050000,4350000,810,-6784,1100,-2805,-109,717,-212,-0.828125,0.134277344,-0.342407227,-6.65283203,43.762207,-12.9394531
811,4054992,4354992,811,-6729,1057,-2962,-155,607,-158,-0.821411133,0.12902832,-0.361572266,-9.46044922,37.0483398,-9.64355469
812,4060000,4360000,812,-6640,963,-3252,-181,490,-92,-0.810546875,0.117553711,-0.396972656,-11.0473633,29.9072266,-5.61523438
813,4064992,4364992,813,-6523,809,-3625,-172,373,-19,-0.796264648,0.0987548828,-0.442504883,-10.4980469,22.7661133,-1.15966797
814,4070000,4370000,814,-6407,633,-3993,-135,255,51,-0.782104492,0.0772705078,-0.487426758,-8.23974609,15.5639648,3.11279297
815,4074992,4374992,815,-6334,474,-4249,-81,152,115,-0.773193359,0.0578613281,-0.518676758,-4.94384766,9.27734375,7.01904297
816,4080000,4380000,816,-6307,341,-4342,-19,68,179,-0.769897461,0.0416259766,-0.530029297,-1.15966797,4.15039062,10.925293
817,4084992,4384992,817,-6309,325,-4187,47,-12,250,-0.770141602,0.0396728516,-0.511108398,2.86865234,-0.732421875,15.2587891
818,4090000,4390000,818,-6427,506,-3792,115,-86,319,-0.784545898,0.0617675781,-0.462890625,7.01904297,-5.24902344,19.4702148
819,4094992,4394992,819,-6637,887,-3296,186,-162,374,-0.810180664,0.108276367,-0.40234375,11.3525391,-9.88769531,22.8271484
820,4100000,4400000,820,-6831,1327,-2788,232,-257,422,-0.833862305,0.161987305,-0.340332031,14.1601562,-15.6860352,25.7568359
821,4104992,4404992,821,-7014,1725,-2360,228,-374,473,-0.856201172,0.210571289,-0.288085938,13.9160156,-22.8271484,28.8696289
822,4110000,4410000,822,-7155,2076,-2018,175,-504,521,-0.873413086,0.253417969,-0.246337891,10.6811523,-30.7617188,31.7993164
823,4114992,4414992,823,-7215,2387,-1701,92,-632,566,-0.880737305,0.291381836,-0.207641602,5.61523438,-38.5742188,34.5458984
824,4120000,4420000,824,-7228,2639,-1457,-1,-749,608,-0.882324219,0.322143555,-0.177856445,-0.0610351562,-45.715332,37.109375
825,4124992,4424992,825,-7205,2756,-1412,-82,-859,648,-0.879516602,0.336425781,-0.172363281,-5.00488281,-52.4291992,39.5507812
826,4130000,4430000,826,-7132,2685,-1565,-137,-970,697,-0.870605469,0.327758789,-0.191040039,-8.36181641,-59.2041016,42.5415039
827,4134992,4434992,827,-7012,2452,-1857,-172,-1073,752,-0.855957031,0.299316406,-0.22668457,-10.4980469,-65.4907227,45.8984375
828,4140000,4440000,828,-6866,2128,-2271,-183,-1168,806,-0.838134766,0.259765625,-0.27722168,-11.1694336,-71.2890625,49.1943359
829,4144992,4444992,829,-6707,1766,-2734,-150,-1254,864,-0.818725586,0.215576172,-0.333740234,-9.15527344,-76.5380859,52.734375
830,4150000,4450000,830,-6542,1380,-3162,-70,-1325,929,-0.798583984,0.168457031,-0.385986328,-4.27246094,-80.871582,56.7016602
831,4154992,4454992,831,-6367,987,-3570,56,-1381,995,-0.77722168,0.120483398,-0.435791016,3.41796875,-84.2895508,60.7299805
832,4160000,4460000,832,-6168,579,-4002,229,-1426,1066,-0.752929688,0.0706787109,-0.488525391,13.9770508,-87.0361328,65.0634766
833,4164992,4464992,833,-5933,212,-4344,453,-1473,1138,-0.724243164,0.0258789062,-0.530273438,27.6489258,-89.9047852,69.4580078
834,4170000,4470000,834,-5672,-45,-4369,678,-1489,1218,-0.692382812,-0.00549316406,-0.533325195,41.3818359,-90.8813477,74.3408203
835,4174992,4474992,835,-5648,57,-3890,820,-1455,1305,-0.689453125,0.00695800781,-0.474853516,50.0488281,-88.8061523,79.6508789
836,4180000,4480000,836,-5820,631,-3096,869,-1387,1322,-0.710449219,0.0770263672,-0.377929688,53.0395508,-84.6557617,80.6884766
837,4184992,4484992,837,-5767,1352,-2419,920,-1323,1303,-0.703979492,0.165039062,-0.295288086,56.1523438,-80.7495117,79.5288086
838,4190000,4490000,838,-5686,2020,-1859,1037,-1317,1344,-0.694091797,0.246582031,-0.226928711,63.293457,-80.3833008,82.03125
839,4194992,4494992,839,-5800,2528,-1388,1160,-1361,1417,-0.708007812,0.30859375,-0.169433594,70.8007812,-83.0688477,86.4868164
840,4200000,4500000,840,-5934,2902,-1116,1209,-1430,1495,-0.724365234,0.354248047,-0.136230469,73.7915039,-87.2802734,91.2475586
841,4204992,4504992,841,-6030,3309,-869,1161,-1499,1560,-0.736083984,0.403930664,-0.106079102,70.8618164,-91.4916992,95.2148438
842,4210000,4510000,842,-6075,3770,-482,1028,-1551,1608,-0.741577148,0.460205078,-0.0588378906,62.7441406,-94.6655273,98.1445312
843,4214992,4514992,843,-6044,4210,-61,858,-1606,1652,-0.737792969,0.513916016,-0.00744628906,52.3681641,-98.0224609,100.830078
844,4220000,4520000,844,-6000,4543,253,693,-1678,1704,-0.732421875,0.55456543,0.0308837891,42.2973633,-102.416992,104.003906
845,4224992,4524992,845,-6035,4755,381,538,-1763,1760,-0.736694336,0.580444336,0.0465087891,32.8369141,-107.60498,107.421875
846,4230000,4530000,846,-6058,4786,213,387,-1862,1813,-0.739501953,0.584228516,0.0260009766,23.6206055,-113.647461,110.656738
847,4234992,4534992,847,-6019,4604,-196,240,-1977,1875,-0.734741211,0.562011719,-0.0239257812,14.6484375,-120.666504,114.440918
848,4240000,4540000,848,-5910,4268,-678,106,-2088,1941,-0.721435547,0.520996094,-0.0827636719,6.46972656,-127.441406,118.469238
849,4244992,4544992,849,-5726,3853,-1106,-3,-2178,2004,-0.698974609,0.470336914,-0.135009766,-0.183105469,-132.93457,122.314453
850,4250000,4550000,850,-5498,3519,-1302,-77,-2238,2056,-0.671142578,0.42956543,-0.158935547,-4.69970703,-136.59668,125.488281
851,4254992,4554992,851,-5215,3374,-1326,-112,-2264,2091,-0.63659668,0.411865234,-0.161865234,-6.8359375,-138.183594,127.624512
852,4260000,4560000,852,-4880,3312,-1343,-83,-2273,2117,-0.595703125,0.404296875,-0.16394043,-5.06591797,-138.73291,129.211426
853,4264992,4564992,853,-4589,3224,-1279,16,-2275,2155,-0.560180664,0.393554688,-0.15612793,0.9765625,-138.85498,131.530762
854,4270000,4570000,854,-4446,3240,-1052,138,-2268,2195,-0.542724609,0.395507812,-0.128417969,8.42285156,-138.427734,133.972168
855,4274992,4574992,855,-4341,3459,-748,250,-2248,2212,-0.529907227,0.422241211,-0.0913085938,15.2587891,-137.207031,135.009766
856,4280000,4580000,856,-4180,3785,-393,356,-2219,2219,-0.510253906,0.462036133,-0.0479736328,21.7285156,-135.437012,135.437012
857,4284992,4584992,857,-4051,4176,89,449,-2190,2234,-0.494506836,0.509765625,0.0108642578,27.4047852,-133.666992,136.352539
858,4290000,4590000,858,-3970,4662,648,512,-2168,2251,-0.484619141,0.569091797,0.0791015625,31.25,-132.324219,137.390137
859,4294992,4594992,859,-3865,5157,1137,555,-2157,2270,-0.471801758,0.629516602,0.138793945,33.8745117,-131.652832,138.549805
860,4300000,4600000,860,-3800,5613,1557,593,-2157,2300,-0.463867188,0.685180664,0.190063477,36.1938477,-131.652832,140.380859
861,4304992,4604992,861,-3748,5938,1864,617,-2172,2333,-0.457519531,0.724853516,0.227539062,37.6586914,-132.568359,142.39502
862,4310000,4610000,862,-3628,6055,2032,613,-2204,2366,-0.442871094,0.739135742,0.248046875,37.4145508,-134.521484,144.40918
863,4314992,4614992,863,-3535,6028,2163,561,-2238,2403,-0.431518555,0.735839844,0.264038086,34.2407227,-136.59668,146.66748
864,4320000,4620000,864,-3489,5958,2099,469,-2267,2432,-0.42590332,0.727294922,0.256225586,28.6254883,-138.366699,148.4375
865,4324992,4624992,865,-3371,5874,1906,373,-2300,2451,-0.411499023,0.717041016,0.232666016,22.7661133,-140.380859,149.597168
866,4330000,4630000,866,-3141,5748,1660,287,-2337,2461,-0.383422852,0.701660156,0.202636719,17.5170898,-142.63916,150.20752
867,4334992,4634992,867,-2818,5515,1333,232,-2378,2468,-0.343994141,0.673217773,0.162719727,14.1601562,-145.141602,150.634766
868,4340000,4640000,868,-2473,5204,1068,209,-2405,2472,-0.301879883,0.635253906,0.130371094,12.7563477,-146.789551,150.878906
869,4344992,4644992,869,-2208,5016,931,216,-2394,2447,-0.26953125,0.612304688,0.113647461,13.1835938,-146.118164,149.353027
870,4350000,4650000,870,-2015,5081,996,250,-2348,2392,-0.24597168,0.620239258,0.121582031,15.2587891,-143.310547,145.996094
871,4354992,4654992,871,-1901,5394,1279,292,-2295,2338,-0.232055664,0.658447266,0.15612793,17.8222656,-140.075684,142.700195
872,4360000,4660000,872,-1898,5896,1771,327,-2253,2301,-0.231689453,0.719726562,0.216186523,19.9584961,-137.512207,140.441895
873,4364992,4664992,873,-1948,6515,2438,328,-2217,2274,-0.237792969,0.795288086,0.297607422,20.0195312,-135.314941,138.793945
874,4370000,4670000,874,-1971,7127,3065,290,-2197,2263,-0.240600586,0.869995117,0.374145508,17.7001953,-134.094238,138.122559
875,4374992,4674992,875,-1918,7628,3530,250,-2207,2270,-0.234130859,0.931152344,0.430908203,15.2587891,-134.70459,138.549805
876,4380000,4680000,876,-1776,7870,3861,231,-2244,2296,-0.216796875,0.960693359,0.471313477,14.0991211,-136.962891,140.136719
877,4384992,4684992,877,-1626,7820,4036,217,-2293,2345,-0.198486328,0.954589844,0.492675781,13.2446289,-139.953613,143.127441
878,4390000,4690000,878,-1540,7718,4205,193,-2336,2399,-0.187988281,0.942138672,0.513305664,11.7797852,-142.578125,146.42334
879,4394992,4694992,879,-1475,7771,4484,162,-2355,2435,-0.180053711,0.948608398,0.547363281,9.88769531,-143.737793,148.620605
880,4400000,4700000,880,-1375,8010,4748,125,-2362,2461,-0.16784668,0.977783203,0.579589844,7.62939453,-144.165039,150.20752
881,4404992,4704992,881,-1148,8276,4909,84,-2379,2494,-0.140136719,1.01025391,0.599243164,5.12695312,-145.202637,152.22168
882,4410000,4710000,882,-779,8408,4934,36,-2412,2540,-0.0950927734,1.02636719,0.602294922,2.19726562,-147.216797,155.029297
883,4414992,4714992,883,-392,8385,4712,-22,-2451,2591,-0.0478515625,1.02355957,0.575195312,-1.34277344,-149.597168,158.14209
884,4420000,4720000,884,0,8122,4325,-89,-2495,2634,0,0.991455078,0.527954102,-5.43212891,-152.282715,160.766602
885,4424992,4724992,885,347,7637,3858,-160,-2532,2662,0.0423583984,0.932250977,0.470947266,-9.765625,-154.541016,162.475586
886,4430000,4730000,886,584,7104,3372,-200,-2541,2654,0.0712890625,0.8671875,0.411621094,-12.2070312,-155.090332,161.987305
887,4434992,4734992,887,771,6675,3039,-176,-2508,2586,0.0941162109,0.814819336,0.37097168,-10.7421875,-153.076172,157.836914
888,4440000,4740000,888,943,6532,2876,-81,-2433,2460,0.115112305,0.797363281,0.351074219,-4.94384766,-148.498535,150.146484
889,4444992,4744992,889,1108,6750,2844,76,-2330,2304,0.135253906,0.823974609,0.347167969,4.63867188,-142.211914,140.625
890,4450000,4750000,890,1272,7190,2901,263,-2223,2160,0.155273438,0.877685547,0.354125977,16.0522461,-135.681152,131.835938
891,4454992,4754992,891,1399,7616,3009,441,-2128,2058,0.170776367,0.9296875,0.36730957,26.9165039,-129.882812,125.610352
892,4460000,4760000,892,1445,7935,3097,594,-2051,2003,0.176391602,0.96862793,0.378051758,36.2548828,-125.183105,122.253418
893,4464992,4764992,893,1466,8172,3288,727,-1981,1975,0.178955078,0.997558594,0.401367188,44.3725586,-120.910645,120.544434
894,4470000,4770000,894,1451,8437,3626,834,-1911,1960,0.177124023,1.02990723,0.442626953,50.9033203,-116.638184,119.628906
895,4474992,4774992,895,1426,8737,3970,911,-1855,1954,0.174072266,1.06652832,0.484619141,55.6030273,-113.220215,119.262695
896,4480000,4780000,896,1448,8942,4218,966,-1822,1959,0.176757812,1.09155273,0.514892578,58.9599609,-111.206055,119.567871
897,4484992,4784992,897,1433,9031,4407,997,-1805,1977,0.174926758,1.10241699,0.537963867,60.8520508,-110.168457,120.666504
898,4490000,4790000,898,1332,9179,4694,995,-1785,1987,0.162597656,1.1204834,0.572998047,60.7299805,-108.947754,121.276855
899,4494992,4794992,899,1160,9572,5153,943,-1753,1970,0.141601562,1.16845703,0.62902832,57.5561523,-106.994629,120.239258
900,4500000,4800000,900,1073,10095,5655,823,-1739,1939,0.130981445,1.2322998,0.690307617,50.2319336,-106.140137,118.347168
901,4504992,4804992,901,1129,10569,5801,655,-1768,1926,0.137817383,1.29016113,0.708129883,39.9780273,-107.910156,117.553711
902,4510000,4810000,902,1271,10793,5612,495,-1826,1929,0.155151367,1.31750488,0.685058594,30.2124023,-111.450195,117.736816
903,4514992,4814992,903,1448,10544,5389,343,-1882,1933,0.176757812,1.28710938,0.657836914,20.9350586,-114.868164,117.980957
904,4520000,4820000,904,1572,9929,5020,191,-1921,1932,0.191894531,1.21203613,0.612792969,11.6577148,-117.248535,117.919922
905,4524992,4824992,905,1688,9197,4461,83,-1945,1923,0.206054688,1.12268066,0.544555664,5.06591797,-118.713379,117.370605
906,4530000,4830000,906,1831,8438,3854,43,-1959,1916,0.223510742,1.0300293,0.470458984,2.62451172,-119.567871,116.943359
907,4534992,4834992,907,1991,7659,3227,67,-1962,1920,0.243041992,0.934936523,0.393920898,4.08935547,-119.750977,117.1875
908,4540000,4840000,908,2165,6905,2603,161,-1950,1932,0.264282227,0.842895508,0.317749023,9.82666016,-119.018555,117.919922
909,4544992,4844992,909,2345,6295,2074,325,-1918,1947,0.286254883,0.768432617,0.253173828,19.8364258,-117.06543,118.835449
910,4550000,4850000,910,2519,5923,1709,539,-1864,1962,0.307495117,0.723022461,0.208618164,32.8979492,-113.769531,119.750977
911,4554992,4854992,911,2685,5776,1453,778,-1801,1973,0.327758789,0.705078125,0.177368164,47.4853516,-109.924316,120.422363
912,4560000,4860000,912,2840,5835,1234,1021,-1745,1980,0.346679688,0.712280273,0.150634766,62.3168945,-106.506348,120.849609
913,4564992,4864992,913,2933,6081,1018,1254,-1698,1985,0.358032227,0.74230957,0.124267578,76.5380859,-103.637695,121.154785
914,4570000,4870000,914,3013,6415,876,1459,-1653,1997,0.367797852,0.783081055,0.106933594,89.050293,-100.891113,121.887207
915,4574992,4874992,915,3079,6828,954,1618,-1603,2015,0.375854492,0.833496094,0.116455078,98.7548828,-97.8393555,122.98584
916,4580000,4880000,916,3137,7347,1316,1706,-1546,2029,0.38293457,0.896850586,0.160644531,104.125977,-94.3603516,123.840332
917,4584992,4884992,917,3250,7950,1948,1719,-1486,2035,0.396728516,0.970458984,0.237792969,104.919434,-90.6982422,124.206543
918,4590000,4890000,918,3369,8638,2787,1665,-1437,2034,0.411254883,1.05444336,0.340209961,101.623535,-87.7075195,124.145508
919,4594992,4894992,919,3446,9378,3649,1540,-1415,2030,0.420654297,1.14477539,0.44543457,93.9941406,-86.3647461,123.901367
920,4600000,4900000,920,3524,10126,4301,1354,-1434,2033,0.430175781,1.23608398,0.525024414,82.6416016,-87.5244141,124.084473
921,4604992,4904992,921,3649,10819,4685,1126,-1493,2045,0.44543457,1.32067871,0.571899414,68.7255859,-91.1254883,124.816895
922,4610000,4910000,922,3796,11296,4860,871,-1563,2063,0.463378906,1.37890625,0.593261719,53.1616211,-95.3979492,125.915527
923,4614992,4914992,923,3910,11434,4818,602,-1628,2081,0.477294922,1.39575195,0.588134766,36.7431641,-99.3652344,127.01416
924,4620000,4920000,924,3950,11213,4570,338,-1686,2095,0.482177734,1.36877441,0.557861328,20.6298828,-102.905273,127.868652
925,4624992,4924992,925,3930,10754,4161,104,-1736,2112,0.479736328,1.31274414,0.50793457,6.34765625,-105.957031,128.90625
926,4630000,4930000,926,3911,10220,3655,-72,-1775,2124,0.477416992,1.24755859,0.446166992,-4.39453125,-108.337402,129.638672
927,4634992,4934992,927,3974,9673,3149,-177,-1794,2124,0.485107422,1.18078613,0.384399414,-10.8032227,-109.49707,129.638672
928,4640000,4940000,928,4117,9135,2704,-211,-1792,2117,0.502563477,1.1151123,0.330078125,-12.878418,-109.375,129.211426
929,4644992,4944992,929,4283,8628,2344,-186,-1774,2106,0.522827148,1.05322266,0.286132812,-11.3525391,-108.276367,128.540039
930,4650000,4950000,930,4428,8175,2069,-115,-1736,2080,0.540527344,0.997924805,0.252563477,-7.01904297,-105.957031,126.953125
931,4654992,4954992,931,4554,7835,1856,-7,-1678,2037,0.555908203,0.956420898,0.2265625,-0.427246094,-102.416992,124.328613
932,4660000,4960000,932,4695,7631,1706,135,-1610,1987,0.573120117,0.931518555,0.208251953,8.23974609,-98.2666016,121.276855
933,4664992,4964992,933,4843,7501,1663,298,-1527,1940,0.591186523,0.915649414,0.20300293,18.1884766,-93.2006836,118.408203
934,4670000,4970000,934,4968,7448,1715,463,-1428,1898,0.606445312,0.909179688,0.209350586,28.2592773,-87.1582031,115.844727
935,4674992,4974992,935,5026,7518,1830,624,-1314,1846,0.613525391,0.917724609,0.223388672,38.0859375,-80.2001953,112.670898
936,4680000,4980000,936,4965,7742,1982,764,-1194,1778,0.606079102,0.945068359,0.241943359,46.6308594,-72.8759766,108.520508
937,4684992,4984992,937,4833,8071,2114,861,-1092,1701,0.58996582,0.985229492,0.258056641,52.5512695,-66.6503906,103.820801
938,4690000,4990000,938,4691,8415,2256,912,-1008,1629,0.572631836,1.02722168,0.275390625,55.6640625,-61.5234375,99.4262695
939,4694992,4994992,939,4540,8703,2362,920,-940,1566,0.554199219,1.06237793,0.288330078,56.1523438,-57.3730469,95.5810547
940,4700000,5000000,940,4441,8927,2441,887,-898,1505,0.542114258,1.08972168,0.297973633,54.1381836,-54.8095703,91.8579102
941,4704992,5004992,941,4453,9116,2550,814,-865,1445,0.543579102,1.11279297,0.311279297,49.6826172,-52.7954102,88.1958008
942,4710000,5010000,942,4473,9233,2647,703,-833,1392,0.546020508,1.1270752,0.323120117,42.9077148,-50.8422852,84.9609375
943,4714992,5014992,943,4435,9270,2718,567,-807,1336,0.541381836,1.1315918,0.331787109,34.6069336,-49.2553711,81.5429688
944,4720000,5020000,944,4379,9168,2753,426,-786,1282,0.534545898,1.11914062,0.33605957,26.0009766,-47.9736328,78.2470703
945,4724992,5024992,945,4275,8922,2730,295,-772,1237,0.521850586,1.08911133,0.333251953,18.0053711,-47.1191406,75.5004883
946,4730000,5030000,946,4165,8691,2543,182,-784,1194,0.508422852,1.06091309,0.310424805,11.1083984,-47.8515625,72.8759766
947,4734992,5034992,947,4132,8584,2273,103,-799,1146,0.504394531,1.04785156,0.27746582,6.28662109,-48.7670898,69.9462891
948,4740000,5040000,948,4146,8548,2092,47,-784,1095,0.506103516,1.04345703,0.255371094,2.86865234,-47.8515625,66.8334961
949,4744992,5044992,949,4185,8459,1937,-10,-755,1046,0.510864258,1.03259277,0.236450195,-0.610351562,-46.081543,63.8427734
950,4750000,5050000,950,4277,8298,1762,-57,-730,1006,0.522094727,1.01293945,0.215087891,-3.47900391,-44.5556641,61.4013672
951,4754992,5054992,951,4363,8066,1624,-77,-702,973,0.532592773,0.984619141,0.198242188,-4.69970703,-42.8466797,59.387207
952,4760000,5060000,952,4400,7814,1512,-66,-668,936,0.537109375,0.953857422,0.184570312,-4.02832031,-40.7714844,57.1289062
953,4764992,5064992,953,4408,7642,1397,-27,-635,892,0.538085938,0.932861328,0.170532227,-1.64794922,-38.7573242,54.4433594
954,4770000,5070000,954,4433,7571,1312,29,-598,842,0.541137695,0.924194336,0.16015625,1.77001953,-36.4990234,51.3916016
955,4774992,5074992,955,4448,7572,1260,88,-557,794,0.54296875,0.924316406,0.153808594,5.37109375,-33.996582,48.4619141
956,4780000,5080000,956,4436,7636,1248,146,-515,747,0.541503906,0.932128906,0.15234375,8.91113281,-31.4331055,45.5932617
957,4784992,5084992,957,4427,7773,1282,202,-472,697,0.540405273,0.948852539,0.156494141,12.3291016,-28.8085938,42.5415039
958,4790000,5090000,958,4392,7947,1321,253,-429,648,0.536132812,0.970092773,0.161254883,15.4418945,-26.184082,39.5507812
959,4794992,5094992,959,4332,8147,1390,297,-385,600,0.528808594,0.994506836,0.169677734,18.1274414,-23.4985352,36.6210938
960,4800000,5100000,960,4264,8365,1487,322,-340,551,0.520507812,1.02111816,0.181518555,19.6533203,-20.7519531,33.6303711
961,4804992,5104992,961,4231,8543,1536,328,-302,501,0.516479492,1.04284668,0.1875,20.0195312,-18.4326172,30.5786133
962,4810000,5110000,962,4246,8667,1520,326,-276,456,0.518310547,1.0579834,0.185546875,19.8974609,-16.8457031,27.8320312
963,4814992,5114992,963,4273,8759,1504,316,-249,415,0.521606445,1.06921387,0.18359375,19.2871094,-15.1977539,25.3295898
964,4820000,5120000,964,4286,8856,1540,293,-211,370,0.523193359,1.08105469,0.187988281,17.8833008,-12.878418,22.5830078
965,4824992,5124992,965,4284,8956,1634,259,-162,313,0.522949219,1.09326172,0.199462891,15.8081055,-9.88769531,19.1040039
966,4830000,5130000,966,4268,9036,1764,219,-105,246,0.520996094,1.10302734,0.215332031,13.3666992,-6.40869141,15.0146484
