sample_index,offset_us,timestamp_us,quat_i,quat_j,quat_k,quat_real,linear_accel_x_mps2,linear_accel_y_mps2,linear_accel_z_mps2,gravity_x_mps2,gravity_y_mps2,gravity_z_mps2,gyro_x_radps,gyro_y_radps,gyro_z_radps
0,19021,319021,0.182067871,0.845153809,-0.501831055,0.0266113281,-0.5859375,0.35546875,0.1953125,-2.046875,-8,-4.75,0.08984375,-0.51953125,0.25390625
1,32730,332730,0.181945801,0.84588623,-0.500793457,0.0235595703,-0.5859375,0.35546875,0.1953125,-2.046875,-8,-4.75,-0.17578125,0.623046875,-0.388671875
2,32778,332778,0.181884766,0.846862793,-0.499389648,0.0198364258,-0.19140625,0.8515625,0.625,-2.109375,-7.9921875,-4.7421875,-0.17578125,0.623046875,-0.388671875
3,32810,332810,0.18182373,0.847961426,-0.497680664,0.0155029297,-0.19140625,0.8515625,0.625,-2.109375,-7.9921875,-4.7421875,-0.251953125,0.849609375,-0.494140625
4,32858,332858,0.181945801,0.849121094,-0.495727539,0.0104980469,-0.30078125,0.5,0.44921875,-1.9609375,-7.984375,-4.796875,-0.251953125,0.849609375,-0.494140625
5,32890,332890,0.182189941,0.850341797,-0.493652344,0.00476074219,-0.30078125,0.5,0.44921875,-1.9609375,-7.984375,-4.796875,-0.263671875,1.16601562,-0.591796875
6,32937,332937,-0.182678223,-0.8515625,0.491455078,0.00177001953,-0.3984375,0.22265625,0.3828125,-1.7890625,-7.9765625,-4.8828125,-0.263671875,1.16601562,-0.591796875
7,32970,332970,-0.18347168,-0.852722168,0.489013672,0.00927734375,-0.3984375,0.22265625,0.3828125,-1.7890625,-7.9765625,-4.8828125,-0.232421875,1.53125,-0.66796875
8,34414,334414,-0.190490723,-0.857849121,0.460876465,0.124084473,-0.3984375,0.22265625,0.3828125,-1.7890625,-7.9765625,-4.8828125,-0.232421875,1.53125,-0.66796875
9,44970,344970,-0.191040039,-0.857299805,0.458007812,0.137023926,-0.3984375,0.22265625,0.3828125,-1.7890625,-7.9765625,-4.8828125,0.08203125,2.56054688,-1.18945312
10,49863,349863,-0.191894531,-0.856262207,0.454956055,0.151611328,-0.47265625,-0.3203125,-0.70703125,0.546875,-7.96875,-5.171875,0.08203125,2.56054688,-1.18945312
11,63593,363593,-0.192626953,-0.855102539,0.452087402,0.165344238,-0.47265625,-0.3203125,-0.70703125,0.546875,-7.96875,-5.171875,0.126953125,2.69335938,-1.21679688
12,68060,368060,-0.19329834,-0.85357666,0.449035645,0.179931641,-1.35546875,-0.328125,-0.83984375,1.0078125,-7.9609375,-5.1171875,0.126953125,2.69335938,-1.21679688
13,78130,378130,-0.19354248,-0.852111816,0.446533203,0.192504883,-1.35546875,-0.328125,-0.83984375,1.0078125,-7.9609375,-5.1171875,0.2109375,2.29101562,-1.16992188
14,84682,384682,-0.19317627,-0.850708008,0.444091797,0.204406738,-1.49609375,0.09375,-1.046875,1.453125,-7.9609375,-5.0234375,0.2109375,2.29101562,-1.16992188
15,102115,402115,-0.192382812,-0.84954834,0.44140625,0.215515137,-1.49609375,0.09375,-1.046875,1.453125,-7.9609375,-5.0234375,0.04296875,1.78710938,-1.15234375
16,114580,414580,-0.191345215,-0.848754883,0.438537598,0.225097656,-0.99609375,1.01953125,-0.796875,1.8359375,-7.9296875,-4.9296875,0.04296875,1.78710938,-1.15234375
17,120138,420138,-0.190307617,-0.848205566,0.435302734,0.23425293,-0.99609375,1.01953125,-0.796875,1.8359375,-7.9296875,-4.9296875,-0.15234375,1.61328125,-1.09179688
18,125768,425768,-0.189453125,-0.847351074,0.432006836,0.243835449,0.62890625,0.46875,-0.8515625,2.1640625,-7.875,-4.875,-0.15234375,1.61328125,-1.09179688
19,138875,438875,-0.188903809,-0.846008301,0.429870605,0.252502441,0.62890625,0.46875,-0.8515625,2.1640625,-7.875,-4.875,0.234375,1.59570312,-0.865234375
20,145778,445778,-0.188415527,-0.844055176,0.428649902,0.261291504,0.39453125,-0.109375,-1.16015625,2.4765625,-7.8359375,-4.796875,0.234375,1.59570312,-0.865234375
21,159262,459262,-0.187927246,-0.841918945,0.428161621,0.26940918,0.39453125,-0.109375,-1.16015625,2.4765625,-7.8359375,-4.796875,0.498046875,1.5234375,-0.7421875
22,165935,465935,-0.18737793,-0.839294434,0.42791748,0.278076172,0.81640625,0.49609375,0.01171875,2.7421875,-7.828125,-4.6640625,0.498046875,1.5234375,-0.7421875
23,182745,482745,-0.186645508,-0.836791992,0.427856445,0.286071777,0.81640625,0.49609375,0.01171875,2.7421875,-7.828125,-4.6640625,0.515625,1.35351562,-0.71484375
24,190556,490556,-0.185791016,-0.834655762,0.427612305,0.293273926,0.796875,0.88671875,-0.34375,2.9921875,-7.8359375,-4.5,0.515625,1.35351562,-0.71484375
25,199235,499235,-0.184875488,-0.832885742,0.427001953,0.299560547,0.796875,0.88671875,-0.34375,2.9921875,-7.8359375,-4.5,0.30859375,1.078125,-0.6796875
26,205001,505001,-0.183654785,-0.831237793,0.426452637,0.305725098,0.36328125,0.15234375,-0.8671875,3.1953125,-7.828125,-4.359375,0.30859375,1.078125,-0.6796875
27,222057,522057,-0.181945801,-0.829467773,0.426391602,0.311645508,0.36328125,0.15234375,-0.8671875,3.1953125,-7.828125,-4.359375,0.556640625,0.978515625,-0.76953125
28,225046,525046,-0.179870605,-0.827331543,0.426696777,0.317871094,0.16015625,-0.4296875,-1.40625,3.3984375,-7.8203125,-4.2421875,0.556640625,0.978515625,-0.76953125
29,238652,538652,-0.177612305,-0.824829102,0.427185059,0.324951172,0.16015625,-0.4296875,-1.40625,3.3984375,-7.8203125,-4.2421875,0.708984375,1.16601562,-0.86328125
30,244269,544269,-0.175598145,-0.82208252,0.427490234,0.332580566,0.5625,-0.62890625,-0.96484375,3.609375,-7.8125,-4.0703125,0.708984375,1.16601562,-0.86328125
31,262425,562425,-0.17388916,-0.819152832,0.427246094,0.340881348,0.5625,-0.62890625,-0.96484375,3.609375,-7.8125,-4.0703125,0.548828125,1.44726562,-0.931640625
32,270495,570495,-0.172302246,-0.816345215,0.426391602,0.349365234,0.4375,-0.03125,-0.09765625,3.8515625,-7.796875,-3.8671875,0.548828125,1.44726562,-0.931640625
33,279816,579816,-0.170959473,-0.814208984,0.424926758,0.356689453,0.4375,-0.03125,-0.09765625,3.8515625,-7.796875,-3.8671875,0.21484375,1.29492188,-0.939453125
34,285003,585003,-0.169494629,-0.812683105,0.422607422,0.363586426,0.921875,0.92578125,1.5390625,4.09375,-7.7578125,-3.703125,0.21484375,1.29492188,-0.939453125
35,301055,601055,-0.168151855,-0.812011719,0.419189453,0.369628906,0.921875,0.92578125,1.5390625,4.09375,-7.7578125,-3.703125,-0.3359375,0.89453125,-0.900390625
36,304044,604044,-0.167419434,-0.812194824,0.415283203,0.373901367,1.26953125,1.23046875,1.4140625,4.3203125,-7.6796875,-3.6171875,-0.3359375,0.89453125,-0.900390625
37,317266,617266,-0.167358398,-0.813049316,0.410583496,0.377319336,1.26953125,1.23046875,1.4140625,4.3203125,-7.6796875,-3.6171875,-0.7578125,0.552734375,-0.568359375
38,324026,624026,-0.167785645,-0.813903809,0.406188965,0.380065918,1.3359375,0.73046875,0.7890625,4.484375,-7.5625,-3.640625,-0.7578125,0.552734375,-0.568359375
39,338495,638495,-0.168273926,-0.814331055,0.402404785,0.38293457,1.3359375,0.73046875,0.7890625,4.484375,-7.5625,-3.640625,-0.466796875,0.6796875,-0.439453125
40,348135,648135,-0.168823242,-0.813964844,0.399414062,0.386535645,1.9453125,-0.20703125,0.4296875,4.6015625,-7.46875,-3.703125,-0.466796875,0.6796875,-0.439453125
41,356837,656837,-0.169311523,-0.812866211,0.396850586,0.391235352,1.9453125,-0.20703125,0.4296875,4.6015625,-7.46875,-3.703125,-0.107421875,1.05078125,-0.46484375
42,363615,663615,-0.169555664,-0.811279297,0.394836426,0.396484375,1.0078125,-0.921875,1.4609375,4.734375,-7.40625,-3.6640625,-0.107421875,1.05078125,-0.46484375
43,380682,680682,-0.169311523,-0.809387207,0.393493652,0.401794434,1.0078125,-0.921875,1.4609375,4.734375,-7.40625,-3.6640625,0.208984375,0.978515625,-0.490234375
44,384379,684379,-0.168640137,-0.807617188,0.39276123,0.406311035,1.08984375,-0.96875,1.8828125,4.8828125,-7.359375,-3.546875,0.208984375,0.978515625,-0.490234375
45,396667,696667,-0.167602539,-0.806030273,0.392211914,0.410400391,1.08984375,-0.96875,1.8828125,4.8828125,-7.359375,-3.546875,0.2109375,0.623046875,-0.4765625
46,403436,703436,-0.166381836,-0.804992676,0.391357422,0.413696289,0.390625,1.078125,2.078125,5.0078125,-7.3359375,-3.4375,0.2109375,0.623046875,-0.4765625
47,420301,720301,-0.165222168,-0.804504395,0.390075684,0.41619873,0.390625,1.078125,2.078125,5.0078125,-7.3359375,-3.4375,-0.05078125,0.34375,-0.470703125
48,429583,729583,-0.164306641,-0.804443359,0.388549805,0.418212891,0.28125,0.953125,1.77734375,5.1171875,-7.2890625,-3.3671875,-0.05078125,0.34375,-0.470703125
49,436614,736614,-0.163452148,-0.804504395,0.386779785,0.42010498,0.28125,0.953125,1.77734375,5.1171875,-7.2890625,-3.3671875,-0.16796875,0.30078125,-0.419921875
50,443351,743351,-0.162719727,-0.804504395,0.38494873,0.42199707,0.28125,0.515625,1.578125,5.1953125,-7.234375,-3.359375,-0.16796875,0.30078125,-0.419921875
51,456334,756334,-0.16204834,-0.804443359,0.383544922,0.42376709,0.28125,0.515625,1.578125,5.1953125,-7.234375,-3.359375,-0.07421875,0.271484375,-0.34765625
52,463081,763081,-0.161315918,-0.804260254,0.382446289,0.425292969,0.046875,-0.02734375,1.5234375,5.2734375,-7.1875,-3.34375,-0.07421875,0.271484375,-0.34765625
53,478202,778202,-0.160522461,-0.804077148,0.381713867,0.426574707,0.046875,-0.02734375,1.5234375,5.2734375,-7.1875,-3.34375,0.037109375,0.1640625,-0.275390625
54,483569,783569,-0.159667969,-0.803894043,0.381164551,0.42767334,-0.16796875,-0.2578125,0.92578125,5.3359375,-7.1484375,-3.3203125,0.037109375,0.1640625,-0.275390625
55,498281,798281,-0.158935547,-0.803833008,0.380737305,0.428527832,-0.16796875,-0.2578125,0.92578125,5.3359375,-7.1484375,-3.3203125,0.0234375,0.09375,-0.205078125
56,506211,806211,-0.158325195,-0.803771973,0.380310059,0.429260254,0.3203125,-0.2421875,0.4453125,5.3828125,-7.125,-3.296875,0.0234375,0.09375,-0.205078125
57,517866,817866,-0.15802002,-0.803710938,0.379821777,0.429931641,0.3203125,-0.2421875,0.4453125,5.3828125,-7.125,-3.296875,-0.044921875,0.1171875,-0.134765625
58,523107,823107,-0.157897949,-0.803649902,0.379211426,0.430603027,0.7109375,-0.2578125,0.28125,5.4140625,-7.109375,-3.2890625,-0.044921875,0.1171875,-0.134765625
59,537621,837621,-0.15802002,-0.803588867,0.378601074,0.431213379,0.7109375,-0.2578125,0.28125,5.4140625,-7.109375,-3.2890625,-0.083984375,0.130859375,-0.052734375
60,542865,842865,-0.15826416,-0.803527832,0.378173828,0.431640625,0.61328125,-0.3515625,0.234375,5.4375,-7.09375,-3.28125,-0.083984375,0.130859375,-0.052734375
61,557000,857000,-0.158569336,-0.803344727,0.377929688,0.432006836,0.61328125,-0.3515625,0.234375,5.4375,-7.09375,-3.28125,-0.00390625,0.0859375,0.017578125
62,562952,862952,-0.158691406,-0.803100586,0.378112793,0.432250977,0.296875,-0.97265625,0,5.4453125,-7.0859375,-3.2734375,-0.00390625,0.0859375,0.017578125
63,577644,877644,-0.158569336,-0.802734375,0.378662109,0.432495117,0.296875,-0.97265625,0,5.4453125,-7.0859375,-3.2734375,0.189453125,0.037109375,0.009765625
64,585719,885719,-0.158081055,-0.802246094,0.379577637,0.432861328,-0.046875,-0.8125,0.13671875,5.4453125,-7.09375,-3.2578125,0.189453125,0.037109375,0.009765625
65,596346,896346,-0.157348633,-0.801635742,0.38067627,0.433288574,-0.046875,-0.8125,0.13671875,5.4453125,-7.09375,-3.2578125,0.341796875,0.044921875,-0.046875
66,602585,902585,-0.156494141,-0.800842285,0.382019043,0.433837891,-0.17578125,-0.48828125,0.203125,5.4609375,-7.109375,-3.2109375,0.341796875,0.044921875,-0.046875
67,617577,917577,-0.155639648,-0.800048828,0.383422852,0.434387207,-0.17578125,-0.48828125,0.203125,5.4609375,-7.109375,-3.2109375,0.41015625,0.046875,-0.0078125
68,621688,921688,-0.154907227,-0.799133301,0.385131836,0.434753418,-0.26171875,-0.6953125,0.21875,5.46875,-7.1328125,-3.1484375,0.41015625,0.046875,-0.0078125
69,635522,935522,-0.15423584,-0.798095703,0.387329102,0.435058594,-0.26171875,-0.6953125,0.21875,5.46875,-7.1328125,-3.1484375,0.498046875,0.001953125,0.111328125
70,641944,941944,-0.153625488,-0.797058105,0.389526367,0.435119629,0.2421875,-0.6640625,0.33984375,5.4609375,-7.1640625,-3.078125,0.498046875,0.001953125,0.111328125
71,656423,956423,-0.153076172,-0.795959473,0.391967773,0.435180664,0.2421875,-0.6640625,0.33984375,5.4609375,-7.1640625,-3.078125,0.5078125,-0.015625,0.16015625
72,665165,965165,-0.152709961,-0.79486084,0.394348145,0.435180664,0.375,-0.04296875,0.68359375,5.4453125,-7.2109375,-3,0.5078125,-0.015625,0.16015625
73,676149,976149,-0.152587891,-0.793762207,0.39642334,0.435241699,0.375,-0.04296875,0.68359375,5.4453125,-7.2109375,-3,0.3984375,0.068359375,0.2109375
74,681958,981958,-0.152893066,-0.792663574,0.39831543,0.43548584,0.359375,0.234375,0.95703125,5.421875,-7.2578125,-2.9296875,0.3984375,0.068359375,0.2109375
75,695872,995872,-0.153503418,-0.791564941,0.399963379,0.435791016,0.359375,0.234375,0.95703125,5.421875,-7.2578125,-2.9296875,0.314453125,0.17578125,0.26171875
76,701667,1001667,-0.154296875,-0.790222168,0.401672363,0.436340332,0.46875,0.25,1.46875,5.390625,-7.3125,-2.8671875,0.314453125,0.17578125,0.26171875
77,715422,1015422,-0.155334473,-0.78894043,0.403198242,0.436889648,0.46875,0.25,1.46875,5.390625,-7.3125,-2.8671875,0.244140625,0.267578125,0.30859375
78,722865,1022865,-0.156738281,-0.787597656,0.404724121,0.437438965,0.7578125,0.52734375,2.05078125,5.3671875,-7.359375,-2.796875,0.244140625,0.267578125,0.30859375
79,736200,1036200,-0.158203125,-0.786193848,0.406616211,0.437683105,0.7578125,0.52734375,2.05078125,5.3671875,-7.359375,-2.796875,0.359375,0.1953125,0.47265625
80,743806,1043806,-0.159545898,-0.784545898,0.409362793,0.4375,0.23046875,0.23828125,2.44140625,5.3203125,-7.4140625,-2.7265625,0.359375,0.1953125,0.47265625
81,756168,1056168,-0.160217285,-0.78314209,0.412658691,0.436767578,0.23046875,0.23828125,2.44140625,5.3203125,-7.4140625,-2.7265625,0.59375,-0.12890625,0.484375
82,762446,1062446,-0.160217285,-0.781982422,0.41619873,0.435424805,0.0625,0.5078125,2.0859375,5.2578125,-7.4921875,-2.640625,0.59375,-0.12890625,0.484375
83,776435,1076435,-0.159851074,-0.781188965,0.41973877,0.43359375,0.0625,0.5078125,2.0859375,5.2578125,-7.4921875,-2.640625,0.564453125,-0.439453125,0.4140625
84,782042,1082042,-0.159301758,-0.780761719,0.423034668,0.431396484,0.5703125,1.03515625,1.70703125,5.171875,-7.5625,-2.5703125,0.564453125,-0.439453125,0.4140625
85,796530,1096530,-0.158752441,-0.780517578,0.426086426,0.428955078,0.5703125,1.03515625,1.70703125,5.171875,-7.5625,-2.5703125,0.423828125,-0.51953125,0.396484375
86,801715,1101715,-0.15838623,-0.780578613,0.428833008,0.426269531,0.95703125,1.03125,1.640625,5.09375,-7.6328125,-2.5390625,0.423828125,-0.51953125,0.396484375
87,815980,1115980,-0.158447266,-0.780944824,0.431091309,0.423278809,0.95703125,1.03125,1.640625,5.09375,-7.6328125,-2.5390625,0.154296875,-0.58984375,0.48828125
88,823480,1123480,-0.158874512,-0.781677246,0.433105469,0.419677734,1.15625,1.4296875,1.68359375,5.0078125,-7.6875,-2.546875,0.154296875,-0.58984375,0.48828125
89,835316,1135316,-0.159362793,-0.782897949,0.434936523,0.415344238,1.15625,1.4296875,1.68359375,5.0078125,-7.6875,-2.546875,-0.0390625,-0.896484375,0.576171875
90,841496,1141496,-0.159729004,-0.784606934,0.436706543,0.41003418,0.66796875,0.609375,0.55859375,4.8828125,-7.75,-2.609375,-0.0390625,-0.896484375,0.576171875
91,854979,1154979,-0.159973145,-0.786621094,0.438476562,0.404174805,0.66796875,0.609375,0.55859375,4.8828125,-7.75,-2.609375,-0.103515625,-1.18359375,0.666015625
92,861150,1161150,-0.160217285,-0.788574219,0.440429688,0.398132324,1.28515625,-0.7578125,-0.9765625,4.7265625,-7.796875,-2.71875,-0.103515625,-1.18359375,0.666015625
93,874359,1174359,-0.160583496,-0.790222168,0.442443848,0.39239502,1.28515625,-0.7578125,-0.9765625,4.7265625,-7.796875,-2.71875,-0.037109375,-0.97265625,0.640625
94,880668,1180668,-0.161010742,-0.791381836,0.444396973,0.387756348,1.40234375,-1.125,-1.14453125,4.5703125,-7.8515625,-2.8203125,-0.037109375,-0.97265625,0.640625
95,896095,1196095,-0.161254883,-0.791992188,0.446655273,0.383666992,1.40234375,-1.125,-1.14453125,4.5703125,-7.8515625,-2.8203125,0.22265625,-0.740234375,0.5703125
96,904911,1204911,-0.161193848,-0.792419434,0.449401855,0.379577637,0.5390625,-0.83203125,-1.203125,4.4375,-7.9140625,-2.875,0.22265625,-0.740234375,0.5703125
97,914532,1214532,-0.160644531,-0.79296875,0.452331543,0.375183105,0.5390625,-0.83203125,-1.203125,4.4375,-7.9140625,-2.875,0.27734375,-0.91796875,0.466796875
98,920714,1220714,-0.159790039,-0.793823242,0.45501709,0.370483398,-0.24609375,-0.734375,-1.75390625,4.3046875,-7.9765625,-2.8984375,0.27734375,-0.91796875,0.466796875
99,934006,1234006,-0.158813477,-0.79486084,0.457702637,0.365356445,-0.24609375,-0.734375,-1.75390625,4.3046875,-7.9765625,-2.8984375,0.208984375,-1.06054688,0.486328125
100,940191,1240191,-0.15814209,-0.796081543,0.459899902,0.360229492,0.421875,0.6328125,-1.2109375,4.171875,-8.0390625,-2.9453125,0.208984375,-1.06054688,0.486328125
101,953726,1253726,-0.15802002,-0.797668457,0.461364746,0.354858398,0.421875,0.6328125,-1.2109375,4.171875,-8.0390625,-2.9453125,-0.1953125,-1.00585938,0.5625
102,959911,1259911,-0.158569336,-0.799621582,0.461914062,0.349487305,0.74609375,1.24609375,-1.015625,4.0390625,-8.078125,-3.0234375,-0.1953125,-1.00585938,0.5625
103,973562,1273562,-0.159790039,-0.802062988,0.461914062,0.343261719,0.74609375,1.24609375,-1.015625,4.0390625,-8.078125,-3.0234375,-0.546875,-1.0234375,0.716796875
104,981857,1281857,-0.161315918,-0.804504395,0.461791992,0.336853027,0.13671875,0.49609375,-0.75390625,3.8828125,-8.09375,-3.171875,-0.546875,-1.0234375,0.716796875
105,993515,1293515,-0.162841797,-0.807006836,0.461914062,0.33001709,0.13671875,0.49609375,-0.75390625,3.8828125,-8.09375,-3.171875,-0.490234375,-1.16601562,0.845703125
106,999697,1299697,-0.16418457,-0.809143066,0.462524414,0.323059082,-0.3203125,-0.2109375,-0.6953125,3.6875,-8.1171875,-3.34375,-0.490234375,-1.16601562,0.845703125
107,1012483,1312483,-0.165588379,-0.811462402,0.463623047,0.315002441,-0.3203125,-0.2109375,-0.6953125,3.6875,-8.1171875,-3.34375,-0.3671875,-1.36523438,0.98046875
108,1019845,1319845,-0.166870117,-0.813537598,0.464904785,0.306945801,-1.00390625,-0.32421875,-1.3515625,3.453125,-8.15625,-3.4921875,-0.3671875,-1.36523438,0.98046875
109,1033550,1333550,-0.168212891,-0.815673828,0.46661377,0.297851562,-1.00390625,-0.32421875,-1.3515625,3.453125,-8.15625,-3.4921875,-0.263671875,-1.50195312,1.08789062
110,1039314,1339314,-0.169494629,-0.817382812,0.468444824,0.289306641,-0.5,-0.3515625,-1.3203125,3.1796875,-8.203125,-3.640625,-0.263671875,-1.50195312,1.08789062
111,1053009,1353009,-0.170959473,-0.819213867,0.47052002,0.279785156,-0.5,-0.3515625,-1.3203125,3.1796875,-8.203125,-3.640625,-0.228515625,-1.52539062,1.1484375
112,1060969,1360969,-0.172302246,-0.820800781,0.472595215,0.270629883,-0.39453125,0,-0.95703125,2.8828125,-8.25,-3.7734375,-0.228515625,-1.52539062,1.1484375
113,1075912,1375912,-0.173583984,-0.822143555,0.474914551,0.261474609,-0.39453125,0,-0.95703125,2.8828125,-8.25,-3.7734375,-0.103515625,-1.59765625,1.18554688
114,1079599,1379599,-0.174682617,-0.823425293,0.477416992,0.252075195,-0.6640625,-0.2890625,-0.91796875,2.578125,-8.3046875,-3.890625,-0.103515625,-1.59765625,1.18554688
115,1092661,1392661,-0.175842285,-0.824768066,0.479980469,0.241760254,-0.6640625,-0.2890625,-0.91796875,2.578125,-8.3046875,-3.890625,-0.130859375,-1.70117188,1.24023438
116,1099970,1399970,-0.177001953,-0.82598877,0.48248291,0.231567383,-0.8359375,-0.12109375,-0.6328125,2.25,-8.359375,-3.984375,-0.130859375,-1.70117188,1.24023438
117,1113178,1413178,-0.178161621,-0.827209473,0.484924316,0.221008301,-0.8359375,-0.12109375,-0.6328125,2.25,-8.359375,-3.984375,-0.130859375,-1.77148438,1.27929688
118,1119362,1419362,-0.179321289,-0.82824707,0.487426758,0.210388184,-0.67578125,-0.234375,-0.4609375,1.8984375,-8.3984375,-4.078125,-0.130859375,-1.77148438,1.27929688
119,1134034,1434034,-0.180480957,-0.829040527,0.49017334,0.199584961,-0.67578125,-0.234375,-0.4609375,1.8984375,-8.3984375,-4.078125,-0.029296875,-1.82617188,1.36132812
120,1140485,1440485,-0.18157959,-0.829528809,0.493225098,0.188720703,-0.4921875,-0.5390625,-0.84375,1.5234375,-8.4375,-4.15625,-0.029296875,-1.82617188,1.36132812
121,1153835,1453835,-0.182739258,-0.829650879,0.496643066,0.17791748,-0.4921875,-0.5390625,-0.84375,1.5234375,-8.4375,-4.15625,0.154296875,-1.8046875,1.45117188
122,1159079,1459079,-0.184082031,-0.829528809,0.500183105,0.166809082,-0.72265625,0.15625,-0.22265625,1.140625,-8.484375,-4.203125,0.154296875,-1.8046875,1.45117188
123,1175659,1475659,-0.185241699,-0.829284668,0.503601074,0.155883789,-0.72265625,0.15625,-0.22265625,1.140625,-8.484375,-4.203125,0.154296875,-1.91796875,1.49023438
124,1179205,1479205,-0.186462402,-0.828979492,0.507080078,0.144348145,-0.515625,0.3515625,-0.0234375,0.7421875,-8.5234375,-4.2109375,0.154296875,-1.91796875,1.49023438
125,1193902,1493902,-0.187683105,-0.828674316,0.510559082,0.131896973,-0.515625,0.3515625,-0.0234375,0.7421875,-8.5234375,-4.2109375,0.078125,-1.98828125,1.51171875
126,1199144,1499144,-0.188781738,-0.828308105,0.51373291,0.119750977,-0.7734375,-0.0078125,0.015625,0.3125,-8.546875,-4.2109375,0.078125,-1.98828125,1.51171875
127,1212356,1512356,-0.189697266,-0.827941895,0.516662598,0.107727051,-0.7734375,-0.0078125,0.015625,0.3125,-8.546875,-4.2109375,0.04296875,-2.04101562,1.51367188
128,1224024,1524024,-0.190673828,-0.827331543,0.51965332,0.0953369141,-1.04296875,-0.15625,-0.03125,-0.109375,-8.5546875,-4.203125,0.04296875,-2.04101562,1.51367188
129,1233167,1533167,-0.191589355,-0.826538086,0.522766113,0.0827026367,-1.04296875,-0.15625,-0.03125,-0.109375,-8.5546875,-4.203125,0.099609375,-2.08007812,1.54101562
130,1239191,1539191,-0.192443848,-0.825561523,0.525756836,0.0704956055,-1.140625,-0.38671875,-0.08203125,-0.546875,-8.5546875,-4.1875,0.099609375,-2.08007812,1.54101562
131,1255109,1555109,-0.193237305,-0.824462891,0.528686523,0.0587768555,-1.140625,-0.38671875,-0.08203125,-0.546875,-8.5546875,-4.1875,0.154296875,-1.97851562,1.4921875
132,1258665,1558665,-0.194091797,-0.823120117,0.531616211,0.0471801758,-0.71875,-0.125,-0.13671875,-0.96875,-8.546875,-4.1328125,0.154296875,-1.97851562,1.4921875
133,1273207,1573207,-0.194946289,-0.821716309,0.534362793,0.0358886719,-0.71875,-0.125,-0.13671875,-0.96875,-8.546875,-4.1328125,0.1328125,-1.82617188,1.390625
134,1278454,1578454,-0.195739746,-0.820251465,0.536865234,0.0246582031,-0.50390625,0.65625,0.09765625,-1.375,-8.5234375,-4.0625,0.1328125,-1.82617188,1.390625
135,1292131,1592131,-0.196533203,-0.818969727,0.539001465,0.0141601562,-0.50390625,0.65625,0.09765625,-1.375,-8.5234375,-4.0625,0.04296875,-1.67382812,1.31445312
136,1304480,1604480,-0.197387695,-0.817626953,0.54083252,0.00402832031,-0.3125,0.65625,0.21875,-1.7578125,-8.484375,-3.9921875,0.04296875,-1.67382812,1.31445312
137,1312599,1612599,0.198059082,0.816467285,-0.542358398,0.00537109375,-0.3125,0.65625,0.21875,-1.7578125,-8.484375,-3.9921875,0.00390625,-1.578125,1.21289062
138,1318405,1618405,0.198730469,0.815185547,-0.543823242,0.0150756836,-0.09375,0.578125,0.1171875,-2.09375,-8.4453125,-3.9296875,0.00390625,-1.578125,1.21289062
139,1333010,1633010,0.199401855,0.814147949,-0.54486084,0.0236206055,-0.09375,0.578125,0.1171875,-2.09375,-8.4453125,-3.9296875,-0.060546875,-1.27734375,1.03125
140,1338388,1638388,0.200073242,0.813171387,-0.545654297,0.0311889648,0.51953125,0.515625,0.171875,-2.3984375,-8.3828125,-3.8671875,-0.060546875,-1.27734375,1.03125
141,1353302,1653302,0.200744629,0.81237793,-0.546203613,0.0373535156,0.51953125,0.515625,0.171875,-2.3984375,-8.3828125,-3.8671875,-0.083984375,-0.912109375,0.80078125
142,1357987,1657987,0.201477051,0.811706543,-0.546569824,0.0430297852,0.58984375,0.390625,0.29296875,-2.625,-8.3359375,-3.8359375,-0.083984375,-0.912109375,0.80078125
143,1371432,1671432,0.202148438,0.811096191,-0.546813965,0.0475463867,0.58984375,0.390625,0.29296875,-2.625,-8.3359375,-3.8359375,-0.06640625,-0.607421875,0.55859375
144,1382610,1682610,0.202636719,0.810668945,-0.54699707,0.0510864258,0.6640625,0.0390625,0.4140625,-2.8125,-8.2890625,-3.8046875,-0.06640625,-0.607421875,0.55859375
145,1392955,1692955,0.202880859,0.810424805,-0.54699707,0.0536499023,0.6640625,0.0390625,0.4140625,-2.8125,-8.2890625,-3.8046875,-0.076171875,-0.318359375,0.248046875
146,1400792,1700792,0.202880859,0.810424805,-0.546875,0.0551147461,0.7265625,0.23828125,0.4765625,-2.9140625,-8.2578125,-3.7890625,-0.076171875,-0.318359375,0.248046875
147,1412924,1712924,0.202697754,0.810668945,-0.546508789,0.0555419922,0.7265625,0.23828125,0.4765625,-2.9140625,-8.2578125,-3.7890625,-0.09765625,0.013671875,-0.064453125
148,1418545,1718545,0.202331543,0.811096191,-0.546020508,0.0548095703,0.7109375,0.26171875,0.33203125,-2.9375,-8.2421875,-3.796875,-0.09765625,0.013671875,-0.064453125
149,1432299,1732299,0.201843262,0.811828613,-0.545288086,0.0530395508,0.7109375,0.26171875,0.33203125,-2.9375,-8.2421875,-3.796875,-0.150390625,0.375,-0.361328125
150,1442604,1742604,0.20135498,0.812866211,-0.544250488,0.0500488281,0.85546875,0.61328125,0.4765625,-2.890625,-8.25,-3.828125,-0.150390625,0.375,-0.361328125
151,1452251,1752251,0.201049805,0.814086914,-0.542907715,0.0458374023,0.85546875,0.61328125,0.4765625,-2.890625,-8.25,-3.828125,-0.193359375,0.83984375,-0.60546875
152,1460188,1760188,0.200927734,0.815490723,-0.541259766,0.0403442383,0.80859375,0.51171875,0.65234375,-2.765625,-8.265625,-3.890625,-0.193359375,0.83984375,-0.60546875
153,1471528,1771528,0.20111084,0.817016602,-0.539367676,0.0335693359,0.80859375,0.51171875,0.65234375,-2.765625,-8.265625,-3.890625,-0.177734375,1.33007812,-0.79296875
154,1479983,1779983,0.201477051,0.818481445,-0.537414551,0.0255737305,0.453125,0.3359375,0.28125,-2.5625,-8.28125,-3.9765625,-0.177734375,1.33007812,-0.79296875
155,1490812,1790812,0.201904297,0.820007324,-0.53527832,0.0164794922,0.453125,0.3359375,0.28125,-2.5625,-8.28125,-3.9765625,-0.13671875,1.69921875,-1.00390625
156,1497557,1797557,0.202331543,0.821594238,-0.532958984,0.00653076172,0.02734375,0.484375,0.60546875,-2.2890625,-8.3125,-4.0703125,-0.13671875,1.69921875,-1.00390625
157,1512815,1812815,-0.202758789,-0.823120117,0.530456543,0.00427246094,0.02734375,0.484375,0.60546875,-2.2890625,-8.3125,-4.0703125,-0.12109375,1.99023438,-1.17382812
158,1519962,1819962,-0.203125,-0.824462891,0.528015137,0.0151977539,-0.80859375,-0.359375,0.70703125,-1.953125,-8.3515625,-4.171875,-0.12109375,1.99023438,-1.17382812
159,1530556,1830556,-0.203369141,-0.825866699,0.52520752,0.0279541016,-0.80859375,-0.359375,0.70703125,-1.953125,-8.3515625,-4.171875,-0.087890625,2.20507812,-1.37304688
160,1538810,1838810,-0.203430176,-0.827148438,0.522277832,0.0407714844,-1.3046875,-0.328125,0.609375,-1.5703125,-8.3828125,-4.265625,-0.087890625,2.20507812,-1.37304688
161,1550328,1850328,-0.203369141,-0.828491211,0.518859863,0.0549926758,-1.3046875,-0.328125,0.609375,-1.5703125,-8.3828125,-4.265625,-0.12890625,2.48828125,-1.578125
162,1559463,1859463,-0.203308105,-0.829650879,0.515319824,0.069519043,-1.14453125,-0.44921875,0.2265625,-1.1171875,-8.4140625,-4.34375,-0.12890625,2.48828125,-1.578125
163,1573261,1873261,-0.203186035,-0.830505371,0.51171875,0.0845947266,-1.14453125,-0.44921875,0.2265625,-1.1171875,-8.4140625,-4.34375,-0.041015625,2.76367188,-1.76367188
164,1576810,1876810,-0.202880859,-0.831054688,0.50793457,0.100891113,-1.37890625,-0.578125,-0.1328125,-0.6171875,-8.4375,-4.40625,-0.041015625,2.76367188,-1.76367188
165,1590239,1890239,-0.202575684,-0.831237793,0.503845215,0.118896484,-1.37890625,-0.578125,-0.1328125,-0.6171875,-8.4375,-4.40625,0.0546875,3.08203125,-1.9375
166,1599046,1899046,-0.202209473,-0.831054688,0.499694824,0.137023926,-1.53515625,-0.609375,-0.5859375,-0.0390625,-8.4453125,-4.4140625,0.0546875,3.08203125,-1.9375
167,1610521,1910521,-0.201782227,-0.830444336,0.495544434,0.155273438,-1.53515625,-0.609375,-0.5859375,-0.0390625,-8.4453125,-4.4140625,0.142578125,3.20703125,-2.0078125
168,1618916,1918916,-0.20123291,-0.829528809,0.491394043,0.172912598,-1.73046875,-0.34765625,-1,0.578125,-8.4375,-4.3828125,0.142578125,3.20703125,-2.0078125
169,1629903,1929903,-0.200378418,-0.828369141,0.486633301,0.191955566,-1.73046875,-0.34765625,-1,0.578125,-8.4375,-4.3828125,0.1171875,3.15429688,-2.04882812
170,1637472,1937472,-0.199157715,-0.826904297,0.482177734,0.209899902,-1.6875,-0.1796875,-0.9921875,1.1875,-8.4140625,-4.3125,0.1171875,3.15429688,-2.04882812
171,1649639,1949639,-0.19732666,-0.825134277,0.477966309,0.227416992,-1.6875,-0.1796875,-0.9921875,1.1875,-8.4140625,-4.3125,0.271484375,2.83984375,-2.06445312
172,1656228,1956228,-0.1953125,-0.823242188,0.474304199,0.243225098,-1.41796875,-0.14453125,-1.078125,1.796875,-8.375,-4.1875,0.271484375,2.83984375,-2.06445312
173,1671461,1971461,-0.193115234,-0.820922852,0.470581055,0.259521484,-1.41796875,-0.14453125,-1.078125,1.796875,-8.375,-4.1875,0.359375,2.671875,-1.9609375
174,1680234,1980234,-0.190856934,-0.818481445,0.466552734,0.27557373,-0.26953125,1.14453125,-0.9765625,2.3359375,-8.3203125,-4.0234375,0.359375,2.671875,-1.9609375
175,1690440,1990440,-0.189025879,-0.81628418,0.462280273,0.290283203,-0.26953125,1.14453125,-0.9765625,2.3359375,-8.3203125,-4.0234375,0.09375,2.48632812,-1.75390625
176,1698167,1998167,-0.18762207,-0.814086914,0.457763672,0.304199219,0.05078125,1.36328125,-0.87890625,2.859375,-8.234375,-3.8515625,0.09375,2.48632812,-1.75390625
177,1708709,2008709,-0.186462402,-0.811706543,0.453613281,0.317138672,0.05078125,1.36328125,-0.87890625,2.859375,-8.234375,-3.8515625,0.138671875,2.22851562,-1.47070312
178,1716465,2016465,-0.18548584,-0.809265137,0.450134277,0.328674316,0.53125,0.50390625,-1.33984375,3.296875,-8.140625,-3.6953125,0.138671875,2.22851562,-1.47070312
179,1730093,2030093,-0.184509277,-0.806152344,0.447143555,0.340698242,0.53125,0.50390625,-1.33984375,3.296875,-8.140625,-3.6953125,0.40234375,2.08398438,-1.20117188
180,1736422,2036422,-0.183349609,-0.802734375,0.445556641,0.35144043,0.046875,-0.33203125,-0.87890625,3.6640625,-8.0703125,-3.5078125,0.40234375,2.08398438,-1.20117188
181,1751891,2051891,-0.181335449,-0.799499512,0.444885254,0.360534668,0.046875,-0.33203125,-0.87890625,3.6640625,-8.0703125,-3.5078125,0.673828125,1.38671875,-1.09375
182,1759272,2059272,-0.178710938,-0.796875,0.444091797,0.368591309,-0.625,0.65625,-0.0234375,3.953125,-8.0234375,-3.2890625,0.673828125,1.38671875,-1.09375
183,1770725,2070725,-0.17590332,-0.79473877,0.442565918,0.376281738,-0.625,0.65625,-0.0234375,3.953125,-8.0234375,-3.2890625,0.28125,1.09179688,-1.1171875
184,1779465,2079465,-0.173522949,-0.793334961,0.440246582,0.382995605,1.1484375,1.3203125,0.83203125,4.2109375,-7.9609375,-3.109375,0.28125,1.09179688,-1.1171875
185,1790163,2090163,-0.171508789,-0.792297363,0.437438965,0.389160156,1.1484375,1.3203125,0.83203125,4.2109375,-7.9609375,-3.109375,-0.021484375,0.96875,-1.00976562
186,1796025,2096025,-0.16986084,-0.791381836,0.434509277,0.395141602,1.3359375,0.31640625,0.1484375,4.4453125,-7.875,-3,-0.021484375,0.96875,-1.00976562
187,1810168,2110168,-0.168640137,-0.790283203,0.431762695,0.400756836,1.3359375,0.31640625,0.1484375,4.4453125,-7.875,-3,-0.015625,0.970703125,-0.83984375
188,1815551,2115551,-0.167358398,-0.788818359,0.42956543,0.406494141,0.56640625,-1.1875,-0.30859375,4.640625,-7.7890625,-2.9296875,-0.015625,0.970703125,-0.83984375
189,1829895,2129895,-0.16583252,-0.78692627,0.428100586,0.412231445,0.56640625,-1.1875,-0.30859375,4.640625,-7.7890625,-2.9296875,0.328125,0.99609375,-0.78515625
190,1836032,2136032,-0.16394043,-0.784729004,0.427185059,0.418151855,0.26953125,-1.94140625,0.07421875,4.8203125,-7.7265625,-2.8125,0.328125,0.99609375,-0.78515625
191,1850197,2150197,-0.161315918,-0.782409668,0.426696777,0.42401123,0.26953125,-1.94140625,0.07421875,4.8203125,-7.7265625,-2.8125,0.59375,0.888671875,-0.91796875
192,1858520,2158520,-0.158081055,-0.779968262,0.426330566,0.429931641,0.734375,-0.96875,0.484375,5.0078125,-7.6640625,-2.6484375,0.59375,0.888671875,-0.91796875
193,1868964,2168964,-0.154602051,-0.777893066,0.42578125,0.43560791,0.734375,-0.96875,0.484375,5.0078125,-7.6640625,-2.6484375,0.525390625,0.736328125,-1.04492188
194,1876462,2176462,-0.151245117,-0.776306152,0.424621582,0.440612793,0.77734375,0.65234375,0.3515625,5.1953125,-7.6015625,-2.4765625,0.525390625,0.736328125,-1.04492188
195,1890702,2190702,-0.148254395,-0.775085449,0.422668457,0.445678711,0.77734375,0.65234375,0.3515625,5.1953125,-7.6015625,-2.4765625,0.123046875,0.705078125,-0.99609375
196,1894959,2194959,-0.146057129,-0.774108887,0.420227051,0.450439453,0.859375,1.74609375,0.6953125,5.3828125,-7.5078125,-2.359375,0.123046875,0.705078125,-0.99609375
197,1908799,2208799,-0.144592285,-0.773193359,0.417602539,0.454833984,0.859375,1.74609375,0.6953125,5.3828125,-7.5078125,-2.359375,-0.087890625,0.662109375,-0.701171875
198,1915751,2215751,-0.143615723,-0.772399902,0.415344238,0.458557129,0.50390625,0.4296875,0.546875,5.546875,-7.4140625,-2.2890625,-0.087890625,0.662109375,-0.701171875
199,1929314,2229314,-0.14276123,-0.77166748,0.413452148,0.461791992,0.50390625,0.4296875,0.546875,5.546875,-7.4140625,-2.2890625,-0.046875,0.55859375,-0.546875
200,1937559,2237559,-0.141845703,-0.770812988,0.411621094,0.465026855,0.38671875,-0.21484375,0.98046875,5.6640625,-7.34375,-2.2265625,-0.046875,0.55859375,-0.546875
201,1949216,2249216,-0.140808105,-0.770141602,0.409912109,0.467956543,0.38671875,-0.21484375,0.98046875,5.6640625,-7.34375,-2.2265625,-0.03515625,0.455078125,-0.544921875
202,1955025,2255025,-0.139709473,-0.769775391,0.40802002,0.470581055,0.51171875,0.296875,1.38671875,5.765625,-7.28125,-2.171875,-0.03515625,0.455078125,-0.544921875
203,1970021,2270021,-0.13873291,-0.769836426,0.405822754,0.47265625,0.51171875,0.296875,1.38671875,5.765625,-7.28125,-2.171875,-0.2421875,0.220703125,-0.505859375
204,1974703,2274703,-0.137939453,-0.770385742,0.403503418,0.473999023,-0.0390625,0.67578125,1.6015625,5.859375,-7.203125,-2.15625,-0.2421875,0.220703125,-0.505859375
205,1989010,2289010,-0.137451172,-0.77130127,0.400939941,0.474853516,-0.0390625,0.67578125,1.6015625,5.859375,-7.203125,-2.15625,-0.40234375,0.0546875,-0.37890625
206,1995164,2295164,-0.137084961,-0.772155762,0.398620605,0.475463867,0.00390625,-0.0078125,1.32421875,5.9296875,-7.1328125,-2.1875,-0.40234375,0.0546875,-0.37890625
207,2009546,2309546,-0.13659668,-0.772888184,0.396789551,0.475952148,0.00390625,-0.0078125,1.32421875,5.9296875,-7.1328125,-2.1875,-0.220703125,0.0078125,-0.2890625
208,2016737,2316737,-0.135864258,-0.773376465,0.395629883,0.476379395,-0.04296875,-1.1328125,0.796875,5.9765625,-7.078125,-2.234375,-0.220703125,0.0078125,-0.2890625
209,2029131,2329131,-0.13482666,-0.773620605,0.395019531,0.476745605,-0.04296875,-1.1328125,0.796875,5.9765625,-7.078125,-2.234375,0.060546875,-0.041015625,-0.244140625
210,2037273,2337273,-0.133544922,-0.773620605,0.394897461,0.477172852,-0.04296875,-1.01171875,0.578125,6.015625,-7.046875,-2.2421875,0.060546875,-0.041015625,-0.244140625
211,2048832,2348832,-0.132263184,-0.773498535,0.395019531,0.477722168,-0.04296875,-1.01171875,0.578125,6.015625,-7.046875,-2.2421875,0.185546875,0.0078125,-0.21484375
212,2055041,2355041,-0.131103516,-0.773193359,0.395263672,0.47833252,0.26953125,-0.3359375,0.32421875,6.046875,-7.03125,-2.21875,0.185546875,0.0078125,-0.21484375
213,2068460,2368460,-0.130249023,-0.772827148,0.395568848,0.478881836,0.26953125,-0.3359375,0.32421875,6.046875,-7.03125,-2.21875,0.158203125,0.0625,-0.125
214,2075544,2375544,-0.129638672,-0.772460938,0.395751953,0.479492188,0.0546875,-0.0078125,0.25390625,6.0703125,-7.015625,-2.1875,0.158203125,0.0625,-0.125
215,2088018,2388018,-0.129394531,-0.772033691,0.395996094,0.480041504,0.0546875,-0.0078125,0.25390625,6.0703125,-7.015625,-2.1875,0.083984375,0.119140625,0.00390625
216,2095474,2395474,-0.129577637,-0.77154541,0.396240234,0.48059082,0.5390625,0.3359375,-0.11328125,6.0859375,-7.015625,-2.1640625,0.083984375,0.119140625,0.00390625
217,2107848,2407848,-0.130004883,-0.771179199,0.396240234,0.481079102,0.5390625,0.3359375,-0.11328125,6.0859375,-7.015625,-2.1640625,-0.05078125,0.119140625,0.03515625
218,2115101,2415101,-0.130493164,-0.770874023,0.396179199,0.481445312,-0.12109375,-0.4296875,-0.17578125,6.09375,-7.015625,-2.140625,-0.05078125,0.119140625,0.03515625
219,2128289,2428289,-0.130981445,-0.770507812,0.396179199,0.481872559,-0.12109375,-0.4296875,-0.17578125,6.09375,-7.015625,-2.140625,0.001953125,0.140625,0.03125
220,2133921,2433921,-0.131347656,-0.770080566,0.396179199,0.482421875,0.22265625,-0.30859375,-0.23046875,6.09375,-7.0234375,-2.125,0.001953125,0.140625,0.03125
221,2147622,2447622,-0.131652832,-0.76953125,0.396179199,0.483215332,0.22265625,-0.30859375,-0.23046875,6.09375,-7.0234375,-2.125,0.0625,0.2265625,0.001953125
222,2154538,2454538,-0.131896973,-0.768859863,0.39630127,0.484130859,0.140625,0.07421875,-0.1484375,6.1015625,-7.0234375,-2.09375,0.0625,0.2265625,0.001953125
223,2167172,2467172,-0.131958008,-0.768188477,0.39642334,0.485107422,0.140625,0.07421875,-0.1484375,6.1015625,-7.0234375,-2.09375,0.080078125,0.189453125,-0.037109375
224,2175164,2475164,-0.131835938,-0.76763916,0.396484375,0.485900879,-0.13671875,0.19140625,0.58203125,6.109375,-7.0234375,-2.0546875,0.080078125,0.189453125,-0.037109375
225,2186398,2486398,-0.131347656,-0.767272949,0.39654541,0.486633301,-0.13671875,0.19140625,0.58203125,6.109375,-7.0234375,-2.0546875,0.1328125,0.080078125,-0.1484375
226,2196574,2496574,-0.130493164,-0.766967773,0.396728516,0.487121582,-0.19921875,-0.19921875,1.0078125,6.1328125,-7.015625,-2.0234375,0.1328125,0.080078125,-0.1484375
227,2206615,2506615,-0.129211426,-0.766845703,0.397094727,0.487426758,-0.19921875,-0.19921875,1.0078125,6.1328125,-7.015625,-2.0234375,0.177734375,-0.091796875,-0.16015625
228,2213361,2513361,-0.128234863,-0.766906738,0.397399902,0.487365723,0.16796875,0.7109375,1.59765625,6.1484375,-7.0078125,-2,0.177734375,-0.091796875,-0.16015625
229,2227218,2527218,-0.127624512,-0.767089844,0.397644043,0.487060547,0.16796875,0.7109375,1.59765625,6.1484375,-7.0078125,-2,0.033203125,-0.130859375,-0.0078125
230,2233541,2533541,-0.127441406,-0.767333984,0.397827148,0.486450195,0.15234375,0.93359375,1.8671875,6.1640625,-7,-2,0.033203125,-0.130859375,-0.0078125
231,2246437,2546437,-0.127685547,-0.767883301,0.398010254,0.485412598,0.15234375,0.93359375,1.8671875,6.1640625,-7,-2,-0.1015625,-0.23046875,0.15625
232,2254486,2554486,-0.128234863,-0.768737793,0.398193359,0.483825684,-0.21484375,0.51953125,2.1484375,6.1484375,-7.0078125,-2.015625,-0.1015625,-0.23046875,0.15625
233,2266707,2566707,-0.12902832,-0.769897461,0.3984375,0.481567383,-0.21484375,0.51953125,2.1484375,6.1484375,-7.0078125,-2.015625,-0.2265625,-0.47265625,0.353515625
234,2274541,2574541,-0.130249023,-0.771484375,0.398620605,0.478515625,-0.12109375,0.55078125,1.8671875,6.09375,-7.0390625,-2.078125,-0.2265625,-0.47265625,0.353515625
235,2286299,2586299,-0.131835938,-0.773376465,0.39855957,0.475036621,-0.12109375,0.55078125,1.8671875,6.09375,-7.0390625,-2.078125,-0.484375,-0.63671875,0.51953125
236,2293041,2593041,-0.134033203,-0.775695801,0.398132324,0.470947266,0.234375,1.234375,1.44140625,6.0078125,-7.0703125,-2.1875,-0.484375,-0.63671875,0.51953125
237,2306447,2606447,-0.13684082,-0.778259277,0.397338867,0.46661377,0.234375,1.234375,1.44140625,6.0078125,-7.0703125,-2.1875,-0.796875,-0.68359375,0.6796875
238,2313152,2613152,-0.140441895,-0.781066895,0.396057129,0.461853027,0.46484375,1.546875,1.23046875,5.890625,-7.1171875,-2.359375,-0.796875,-0.68359375,0.6796875
239,2325361,2625361,-0.145019531,-0.784179688,0.394287109,0.456604004,0.46484375,1.546875,1.23046875,5.890625,-7.1171875,-2.359375,-1.18554688,-0.712890625,0.970703125
240,2336086,2636086,-0.15045166,-0.787780762,0.392150879,0.450561523,0.796875,2.125,1.48046875,5.75,-7.15625,-2.5703125,-1.18554688,-0.712890625,0.970703125
241,2346097,2646097,-0.156677246,-0.791931152,0.389648438,0.443237305,0.796875,2.125,1.48046875,5.75,-7.15625,-2.5703125,-1.59375,-1.06445312,1.2890625
242,2353231,2653231,-0.163513184,-0.796569824,0.387084961,0.434570312,0.65625,1.3671875,1.27734375,5.546875,-7.203125,-2.8671875,-1.59375,-1.06445312,1.2890625
243,2368455,2668455,-0.170043945,-0.801147461,0.385070801,0.425415039,0.65625,1.3671875,1.27734375,5.546875,-7.203125,-2.8671875,-1.58984375,-1.4453125,1.5390625
244,2373348,2673348,-0.176757812,-0.805786133,0.383544922,0.415222168,0.828125,-0.49609375,-0.39453125,5.2578125,-7.2578125,-3.2265625,-1.58984375,-1.4453125,1.5390625
245,2385123,2685123,-0.18371582,-0.810180664,0.382446289,0.404541016,0.828125,-0.49609375,-0.39453125,5.2578125,-7.2578125,-3.2265625,-1.37695312,-1.41601562,1.66796875
246,2394590,2694590,-0.190551758,-0.813720703,0.382019043,0.39440918,1.12890625,-2.078125,-0.9453125,4.921875,-7.3203125,-3.59375,-1.37695312,-1.41601562,1.66796875
247,2406711,2706711,-0.19744873,-0.816772461,0.38269043,0.384033203,1.12890625,-2.078125,-0.9453125,4.921875,-7.3203125,-3.59375,-0.955078125,-1.4921875,1.91992188
248,2413474,2713474,-0.204162598,-0.819641113,0.384338379,0.372558594,0.4921875,-1.46484375,-0.76171875,4.5625,-7.3984375,-3.890625,-0.955078125,-1.4921875,1.91992188
249,2428264,2728264,-0.210693359,-0.822570801,0.386535645,0.360046387,0.4921875,-1.46484375,-0.76171875,4.5625,-7.3984375,-3.890625,-0.890625,-1.99609375,2.15625
250,2431811,2731811,-0.216918945,-0.825561523,0.388916016,0.346679688,-0.328125,-0.59765625,-0.89453125,4.1171875,-7.5,-4.1796875,-0.890625,-1.99609375,2.15625
251,2447882,2747882,-0.222961426,-0.828735352,0.391784668,0.331665039,-0.328125,-0.59765625,-0.89453125,4.1171875,-7.5,-4.1796875,-0.80859375,-2.44726562,2.234375
252,2452135,2752135,-0.228637695,-0.83190918,0.394714355,0.315979004,-0.5390625,-0.15234375,-1.984375,3.6015625,-7.6015625,-4.46875,-0.80859375,-2.44726562,2.234375
253,2467398,2767398,-0.234680176,-0.835266113,0.397460938,0.298706055,-0.5390625,-0.15234375,-1.984375,3.6015625,-7.6015625,-4.46875,-1.02734375,-2.72070312,2.32226562
254,2473535,2773535,-0.240661621,-0.838623047,0.399841309,0.280944824,-0.67578125,-0.08203125,-2.09375,3.0078125,-7.671875,-4.78125,-1.02734375,-2.72070312,2.32226562
255,2487703,2787703,-0.246154785,-0.841552734,0.401977539,0.26385498,-0.67578125,-0.08203125,-2.09375,3.0078125,-7.671875,-4.78125,-1.01171875,-2.77148438,2.328125
256,2496467,2796467,-0.251281738,-0.843933105,0.404663086,0.246826172,-0.80859375,-0.9453125,-2.203125,2.375,-7.6875,-5.09375,-1.01171875,-2.77148438,2.328125
257,2509491,2809491,-0.255615234,-0.845581055,0.408569336,0.229675293,-0.80859375,-0.9453125,-2.203125,2.375,-7.6875,-5.09375,-0.38671875,-2.921875,2.234375
258,2514657,2814657,-0.259033203,-0.846435547,0.413757324,0.212585449,-0.87109375,-1.95703125,-1.48828125,1.75,-7.7109375,-5.3125,-0.38671875,-2.921875,2.234375
259,2530180,2830180,-0.261657715,-0.846557617,0.41998291,0.196105957,-0.87109375,-1.95703125,-1.48828125,1.75,-7.7109375,-5.3125,0.166015625,-2.87890625,2.01171875
260,2532858,2832858,-0.26373291,-0.846191406,0.426635742,0.179748535,-0.34765625,-1.3203125,-0.78125,1.109375,-7.7734375,-5.40625,0.166015625,-2.87890625,2.01171875
261,2547223,2847223,-0.265319824,-0.845581055,0.432922363,0.164855957,-0.34765625,-1.3203125,-0.78125,1.109375,-7.7734375,-5.40625,0.283203125,-2.76757812,1.82226562
262,2552015,2852015,-0.266662598,-0.844848633,0.439086914,0.149475098,-0.203125,-0.1171875,0.03125,0.5078125,-7.828125,-5.4140625,0.283203125,-2.76757812,1.82226562
263,2567076,2867076,-0.26763916,-0.844055176,0.444946289,0.134033203,-0.203125,-0.1171875,0.03125,0.5078125,-7.828125,-5.4140625,0.15625,-2.7265625,1.63085938
264,2575203,2875203,-0.268127441,-0.843383789,0.449951172,0.119934082,-0.30859375,0.14453125,-0.17578125,-0.078125,-7.859375,-5.3984375,0.15625,-2.7265625,1.63085938
265,2592200,2892200,-0.268310547,-0.842590332,0.454711914,0.106018066,-0.30859375,0.14453125,-0.17578125,-0.078125,-7.859375,-5.3984375,0.12109375,-2.54492188,1.41015625
266,2596945,2896945,-0.268249512,-0.84173584,0.459289551,0.0927124023,0.0078125,0.11328125,-0.21484375,-0.5859375,-7.8671875,-5.359375,0.12109375,-2.54492188,1.41015625
267,2604644,2904644,-0.267883301,-0.840698242,0.463745117,0.0802001953,0.0078125,0.11328125,-0.21484375,-0.5859375,-7.8671875,-5.359375,0.20703125,-2.30273438,1.18164062
268,2611888,2911888,-0.267211914,-0.839355469,0.468505859,0.0679321289,0.390625,-0.078125,-0.078125,-1.046875,-7.8671875,-5.3046875,0.20703125,-2.30273438,1.18164062
269,2629568,2929568,-0.266235352,-0.837890625,0.473083496,0.0570678711,0.390625,-0.078125,-0.078125,-1.046875,-7.8671875,-5.3046875,0.3515625,-2.08789062,0.947265625
270,2635013,2935013,-0.265075684,-0.836425781,0.477478027,0.0469360352,0.22265625,0.61328125,0.2734375,-1.453125,-7.8671875,-5.1953125,0.3515625,-2.08789062,0.947265625
271,2646139,2946139,-0.263916016,-0.834899902,0.481567383,0.0371704102,0.22265625,0.61328125,0.2734375,-1.453125,-7.8671875,-5.1953125,0.310546875,-1.90625,0.8515625
272,2654203,2954203,-0.262756348,-0.833496094,0.485290527,0.0277099609,0.140625,0.75,0.0703125,-1.7890625,-7.890625,-5.0703125,0.310546875,-1.90625,0.8515625
273,2670490,2970490,-0.261474609,-0.832275391,0.488464355,0.0189819336,0.140625,0.75,0.0703125,-1.7890625,-7.890625,-5.0703125,0.171875,-1.80273438,0.73828125
274,2674634,2974634,-0.260009766,-0.830932617,0.491760254,0.00970458984,-0.015625,0.58203125,0.125,-2.09375,-7.875,-4.96875,0.171875,-1.80273438,0.73828125
275,2685520,2985520,-0.258544922,-0.829650879,0.494750977,0.00134277344,-0.015625,0.58203125,0.125,-2.09375,-7.875,-4.96875,0.1875,-1.671875,0.62109375
276,2694183,2994183,0.256835938,0.828491211,-0.497619629,0.00671386719,-0.109375,0.5,0.16796875,-2.3828125,-7.8671875,-4.859375,0.1875,-1.671875,0.62109375
277,2710374,3010374,0.255126953,0.827331543,-0.500183105,0.0142822266,-0.109375,0.5,0.16796875,-2.3828125,-7.8671875,-4.859375,0.14453125,-1.5078125,0.5078125
278,2714386,3014386,0.253540039,0.82623291,-0.502563477,0.0212402344,-0.25,0.52734375,0.44921875,-2.625,-7.859375,-4.7578125,0.14453125,-1.5078125,0.5078125
279,2726672,3026672,0.252075195,0.825195312,-0.504760742,0.0278320312,-0.25,0.52734375,0.44921875,-2.625,-7.859375,-4.7578125,0.125,-1.3203125,0.45703125
280,2735484,3035484,0.250732422,0.824157715,-0.506713867,0.0336303711,-0.35546875,0.51171875,0.01171875,-2.828125,-7.84375,-4.6640625,0.125,-1.3203125,0.45703125
281,2748972,3048972,0.249328613,0.823059082,-0.508789062,0.0392456055,-0.35546875,0.51171875,0.01171875,-2.828125,-7.84375,-4.6640625,0.1796875,-1.06640625,0.345703125
282,2752946,3052946,0.248168945,0.822021484,-0.510681152,0.0439453125,-0.3359375,0.3125,-0.046875,-3,-7.8359375,-4.5703125,0.1796875,-1.06640625,0.345703125
283,2765418,3065418,0.247253418,0.821044922,-0.512329102,0.048034668,-0.3359375,0.3125,-0.046875,-3,-7.8359375,-4.5703125,0.15234375,-0.814453125,0.287109375
284,2771135,3071135,0.246398926,0.82019043,-0.51373291,0.0516357422,-0.6640625,0.7265625,-0.0546875,-3.1328125,-7.828125,-4.484375,0.15234375,-0.814453125,0.287109375
285,2789058,3089058,0.245422363,0.819458008,-0.514953613,0.0550537109,-0.6640625,0.7265625,-0.0546875,-3.1328125,-7.828125,-4.484375,0.083984375,-0.681640625,0.20703125
286,2793055,3093055,0.244506836,0.818908691,-0.515991211,0.0581054688,-0.8203125,0.6796875,-0.078125,-3.2421875,-7.8203125,-4.421875,0.083984375,-0.681640625,0.20703125
287,2807540,3107540,0.243530273,0.818481445,-0.516784668,0.0607910156,-0.8203125,0.6796875,-0.078125,-3.2421875,-7.8203125,-4.421875,0.015625,-0.55078125,0.111328125
288,2816083,3116083,0.242614746,0.818237305,-0.51739502,0.0629882812,-0.58984375,0.6796875,0.10546875,-3.3203125,-7.8203125,-4.375,0.015625,-0.55078125,0.111328125
289,2829741,3129741,0.241760254,0.818115234,-0.51776123,0.0648193359,-0.58984375,0.6796875,0.10546875,-3.3203125,-7.8203125,-4.375,-0.04296875,-0.3671875,0.03515625
290,2833739,3133739,0.240966797,0.818115234,-0.517944336,0.0662231445,-0.12109375,0.7109375,-0.04296875,-3.3671875,-7.8125,-4.34375,-0.04296875,-0.3671875,0.03515625
291,2844590,3144590,0.24041748,0.81817627,-0.517944336,0.0668945312,-0.12109375,0.7109375,-0.04296875,-3.3671875,-7.8125,-4.34375,-0.048828125,-0.11328125,-0.033203125
292,2850307,3150307,0.24005127,0.818359375,-0.517822266,0.0669555664,0.0234375,0.359375,-0.05078125,-3.3984375,-7.8046875,-4.3359375,-0.048828125,-0.11328125,-0.033203125
293,2867393,3167393,0.239868164,0.818664551,-0.51751709,0.0662841797,0.0234375,0.359375,-0.05078125,-3.3984375,-7.8046875,-4.3359375,-0.044921875,0.177734375,-0.14453125
294,2871003,3171003,0.239746094,0.819091797,-0.517150879,0.0648803711,0.23828125,0.28125,0.265625,-3.3828125,-7.8046875,-4.34375,-0.044921875,0.177734375,-0.14453125
295,2885126,3185126,0.239685059,0.819641113,-0.516601562,0.0625610352,0.23828125,0.28125,0.265625,-3.3828125,-7.8046875,-4.34375,-0.0390625,0.458984375,-0.296875
296,2893482,3193482,0.239562988,0.8203125,-0.515869141,0.0595703125,0.20703125,0.17578125,0.5625,-3.3125,-7.8125,-4.375,-0.0390625,0.458984375,-0.296875
297,2906961,3206961,0.239379883,0.821228027,-0.514892578,0.055847168,0.20703125,0.17578125,0.5625,-3.3125,-7.8125,-4.375,-0.0859375,0.716796875,-0.509765625
298,2910564,3210564,0.239013672,0.822387695,-0.51373291,0.0514526367,0.171875,0.19921875,0.57421875,-3.203125,-7.8359375,-4.421875,-0.0859375,0.716796875,-0.509765625
299,2924279,3224279,0.23840332,0.823852539,-0.512145996,0.0456542969,0.171875,0.19921875,0.57421875,-3.203125,-7.8359375,-4.421875,-0.150390625,1.02148438,-0.78125
300,2930296,3230296,0.237731934,0.825500488,-0.510375977,0.0389404297,0.453125,0.0390625,0.61328125,-3.0234375,-7.8671875,-4.5,-0.150390625,1.02148438,-0.78125
301,2946595,3246595,0.236938477,0.827209473,-0.508483887,0.0311279297,0.453125,0.0390625,0.61328125,-3.0234375,-7.8671875,-4.5,-0.099609375,1.44335938,-1.07226562
302,2950332,3250332,0.23614502,0.828857422,-0.506652832,0.0223999023,0.80859375,-0.07421875,0.62109375,-2.765625,-7.90625,-4.5859375,-0.099609375,1.44335938,-1.07226562
303,2962744,3262744,0.234985352,0.830627441,-0.504638672,0.01171875,0.80859375,-0.07421875,0.62109375,-2.765625,-7.90625,-4.5859375,-0.0078125,1.7421875,-1.3515625
304,2975140,3275140,0.233703613,0.832397461,-0.502563477,0.000671386719,0.39453125,0.36328125,0.5546875,-2.4296875,-7.9609375,-4.671875,-0.0078125,1.7421875,-1.3515625
305,2986415,3286415,-0.23236084,-0.83392334,0.500427246,0.0102539062,0.39453125,0.36328125,0.5546875,-2.4296875,-7.9609375,-4.671875,0.009765625,1.90820312,-1.48632812
306,2990145,3290145,-0.230834961,-0.835510254,0.49810791,0.0222167969,-0.1875,0.26953125,0.09765625,-2.0390625,-8.0234375,-4.75,0.009765625,1.90820312,-1.48632812
307,3005881,3305881,-0.229064941,-0.837219238,0.495361328,0.0350952148,-0.1875,0.26953125,0.09765625,-2.0390625,-8.0234375,-4.75,-0.04296875,2.06445312,-1.62890625
308,3009614,3309614,-0.227478027,-0.838745117,0.492370605,0.0475463867,-0.140625,0.671875,0.2109375,-1.5859375,-8.078125,-4.828125,-0.04296875,2.06445312,-1.62890625
309,3025768,3325768,-0.225830078,-0.840454102,0.488708496,0.061706543,-0.140625,0.671875,0.2109375,-1.5859375,-8.078125,-4.828125,-0.130859375,2.37890625,-1.75976562
310,3029489,3329489,-0.22442627,-0.84185791,0.484924316,0.0759277344,-0.328125,0.2421875,0.0234375,-1.09375,-8.109375,-4.90625,-0.130859375,2.37890625,-1.75976562
311,3044236,3344236,-0.223144531,-0.843017578,0.48059082,0.0921630859,-0.328125,0.2421875,0.0234375,-1.09375,-8.109375,-4.90625,-0.06640625,2.80859375,-1.87695312
312,3052238,3352238,-0.222045898,-0.84375,0.476379395,0.108947754,-0.99609375,-0.73046875,0.1171875,-0.5390625,-8.1328125,-4.9609375,-0.06640625,2.80859375,-1.87695312
313,3065912,3365912,-0.22076416,-0.843994141,0.472167969,0.126220703,-0.99609375,-0.73046875,0.1171875,-0.5390625,-8.1328125,-4.9609375,0.099609375,3.03710938,-2.0078125
314,3069642,3369642,-0.219177246,-0.84387207,0.468261719,0.143432617,-2.09765625,-1.14453125,-0.40625,0.0625,-8.140625,-4.9765625,0.099609375,3.03710938,-2.0078125
315,3083764,3383764,-0.21697998,-0.843322754,0.464355469,0.161437988,-2.09765625,-1.14453125,-0.40625,0.0625,-8.140625,-4.9765625,0.287109375,2.9296875,-2.12304688
316,3088795,3388795,-0.214416504,-0.842468262,0.460632324,0.179138184,-2.453125,-0.5234375,-0.91796875,0.6875,-8.1484375,-4.921875,0.287109375,2.9296875,-2.12304688
317,3104218,3404218,-0.211608887,-0.841369629,0.45703125,0.196166992,-2.453125,-0.5234375,-0.91796875,0.6875,-8.1484375,-4.921875,0.30859375,2.7734375,-2.12304688
318,3109253,3409253,-0.208862305,-0.840148926,0.453308105,0.212158203,-2.46484375,-0.1171875,-1.15234375,1.3125,-8.1328125,-4.8046875,0.30859375,2.7734375,-2.12304688
319,3124411,3424411,-0.205932617,-0.838745117,0.449157715,0.228881836,-2.46484375,-0.1171875,-1.15234375,1.3125,-8.1328125,-4.8046875,0.248046875,2.73828125,-2.09765625
320,3133491,3433491,-0.203063965,-0.837036133,0.445068359,0.244995117,-2.015625,-0.15625,-1.66015625,1.8984375,-8.09375,-4.6796875,0.248046875,2.73828125,-2.09765625
321,3146421,3446421,-0.200012207,-0.835021973,0.441223145,0.260925293,-2.015625,-0.15625,-1.66015625,1.8984375,-8.09375,-4.6796875,0.376953125,2.51367188,-1.93554688
322,3150037,3450037,-0.196838379,-0.832641602,0.438171387,0.275634766,-2.171875,-0.2578125,-1.74609375,2.4765625,-8.03125,-4.515625,0.376953125,2.51367188,-1.93554688
323,3163572,3463572,-0.193603516,-0.83013916,0.43560791,0.289245605,-2.171875,-0.2578125,-1.74609375,2.4765625,-8.03125,-4.515625,0.501953125,2.1953125,-1.75976562
324,3168355,3468355,-0.190368652,-0.827575684,0.432922363,0.302429199,-1.27734375,0.75390625,-1.29296875,2.9609375,-7.96875,-4.3203125,0.501953125,2.1953125,-1.75976562
325,3183323,3483323,-0.18762207,-0.825561523,0.430358887,0.313171387,-1.27734375,0.75390625,-1.29296875,2.9609375,-7.96875,-4.3203125,0.28125,1.69726562,-1.453125
326,3189296,3489296,-0.184875488,-0.823608398,0.427612305,0.323486328,-0.59765625,1.49609375,-1.32421875,3.390625,-7.90625,-4.1328125,0.28125,1.69726562,-1.453125
327,3203536,3503536,-0.182617188,-0.821960449,0.424743652,0.332580566,-0.59765625,1.49609375,-1.32421875,3.390625,-7.90625,-4.1328125,0.048828125,1.40625,-1.171875
328,3212835,3512835,-0.181030273,-0.820739746,0.421508789,0.340454102,0.75390625,1.484375,-1.51171875,3.7265625,-7.8203125,-3.984375,0.048828125,1.40625,-1.171875
329,3226144,3526144,-0.179870605,-0.819702148,0.418212891,0.34765625,0.75390625,1.484375,-1.51171875,3.7265625,-7.8203125,-3.984375,-0.107421875,1.29296875,-0.986328125
330,3231407,3531407,-0.178710938,-0.818359375,0.415283203,0.354858398,0.609375,0.6328125,-1.94140625,3.984375,-7.734375,-3.8984375,-0.107421875,1.29296875,-0.986328125
331,3242832,3542832,-0.177307129,-0.816589355,0.412597656,0.362548828,0.609375,0.6328125,-1.94140625,3.984375,-7.734375,-3.8984375,0.119140625,1.30273438,-0.9765625
332,3250051,3550051,-0.17565918,-0.814880371,0.41015625,0.369934082,0.3984375,-0.05078125,-1.46875,4.234375,-7.6640625,-3.796875,0.119140625,1.30273438,-0.9765625
333,3263098,3563098,-0.173461914,-0.812866211,0.408081055,0.377624512,0.3984375,-0.05078125,-1.46875,4.234375,-7.6640625,-3.796875,0.375,1.28320312,-1.09375
334,3267881,3567881,-0.170593262,-0.810424805,0.406799316,0.385559082,0.0703125,-0.7421875,-1.80078125,4.484375,-7.5859375,-3.65625,0.375,1.28320312,-1.09375
335,3282757,3582757,-0.167663574,-0.807678223,0.405944824,0.393371582,0.0703125,-0.7421875,-1.80078125,4.484375,-7.5859375,-3.65625,0.57421875,1.30859375,-1.04882812
336,3290203,3590203,-0.165405273,-0.804748535,0.404968262,0.401245117,0.00390625,-0.34375,-0.6953125,4.7421875,-7.5234375,-3.4609375,0.57421875,1.30859375,-1.04882812
337,3303573,3603573,-0.164123535,-0.802124023,0.403320312,0.408691406,0.00390625,-0.34375,-0.6953125,4.7421875,-7.5234375,-3.4609375,0.177734375,1.47460938,-0.869140625
338,3307300,3607300,-0.163696289,-0.799804688,0.40032959,0.416259766,0.46875,0.359375,0.6953125,4.96875,-7.4609375,-3.28125,0.177734375,1.47460938,-0.869140625
339,3323455,3623455,-0.163818359,-0.798034668,0.396118164,0.423522949,0.46875,0.359375,0.6953125,4.96875,-7.4609375,-3.28125,-0.423828125,1.40234375,-0.822265625
340,3327182,3627182,-0.164428711,-0.796813965,0.391235352,0.430053711,1.28515625,-0.30859375,0.76171875,5.1875,-7.3671875,-3.15625,-0.423828125,1.40234375,-0.822265625
341,3342414,3642414,-0.165466309,-0.795837402,0.385070801,0.437011719,1.28515625,-0.30859375,0.76171875,5.1875,-7.3671875,-3.15625,-0.8203125,1.38671875,-0.837890625
342,3350416,3650416,-0.166809082,-0.795227051,0.378723145,0.44317627,1.15625,0.36328125,0.40234375,5.390625,-7.234375,-3.1015625,-0.8203125,1.38671875,-0.837890625
343,3363339,3663339,-0.168518066,-0.79473877,0.372009277,0.449035645,1.15625,0.36328125,0.40234375,5.390625,-7.234375,-3.1015625,-1.02539062,1.30859375,-0.701171875
344,3371964,3671964,-0.170654297,-0.794250488,0.365356445,0.454467773,1.94921875,1.05859375,1.55078125,5.59375,-7.0859375,-3.1015625,-1.02539062,1.30859375,-0.701171875
345,3383602,3683602,-0.173339844,-0.793640137,0.357666016,0.460571289,1.94921875,1.05859375,1.55078125,5.59375,-7.0859375,-3.1015625,-1.17773438,1.47070312,-0.693359375
346,3387332,3687332,-0.175720215,-0.79296875,0.350402832,0.466369629,1.6171875,0.609375,2.15625,5.7734375,-6.9453125,-3.09375,-1.17773438,1.47070312,-0.693359375
347,3404202,3704202,-0.178222656,-0.792297363,0.342468262,0.472473145,1.6171875,0.609375,2.15625,5.7734375,-6.9453125,-3.09375,-1.16992188,1.40234375,-0.716796875
348,3407796,3707796,-0.180358887,-0.791809082,0.335449219,0.477478027,1.16015625,0.875,3.06640625,5.9609375,-6.7890625,-3.0859375,-1.16992188,1.40234375,-0.716796875
349,3424431,3724431,-0.182556152,-0.791687012,0.328552246,0.481628418,1.16015625,0.875,3.06640625,5.9609375,-6.7890625,-3.0859375,-1.125,0.900390625,-0.525390625
350,3428054,3728054,-0.184448242,-0.792175293,0.32244873,0.484191895,0.27734375,0.57421875,3.54296875,6.1171875,-6.640625,-3.1015625,-1.125,0.900390625,-0.525390625
351,3442064,3742064,-0.185913086,-0.793334961,0.317260742,0.485107422,0.27734375,0.57421875,3.54296875,6.1171875,-6.640625,-3.1015625,-0.89453125,0.140625,-0.3203125
352,3450803,3750803,-0.186828613,-0.794799805,0.313232422,0.485046387,-0.7265625,-0.9609375,2.08203125,6.203125,-6.5234375,-3.171875,-0.89453125,0.140625,-0.3203125
353,3464391,3764391,-0.18737793,-0.796325684,0.309692383,0.484619141,-0.7265625,-0.9609375,2.08203125,6.203125,-6.5234375,-3.171875,-0.66015625,-0.0546875,-0.296875
354,3468718,3768718,-0.187561035,-0.797485352,0.30657959,0.484558105,-0.078125,-1.58203125,0.34375,6.2421875,-6.4375,-3.2734375,-0.66015625,-0.0546875,-0.296875
355,3481385,3781385,-0.1875,-0.798156738,0.303649902,0.485351562,-0.078125,-1.58203125,0.34375,6.2421875,-6.4375,-3.2734375,-0.3125,0.263671875,-0.34765625
356,3487100,3787100,-0.187438965,-0.798034668,0.301513672,0.486938477,0.7578125,-1.1640625,-1.171875,6.2890625,-6.359375,-3.328125,-0.3125,0.263671875,-0.34765625
357,3500306,3800306,-0.187805176,-0.797485352,0.299682617,0.488830566,0.7578125,-1.1640625,-1.171875,6.2890625,-6.359375,-3.328125,-0.224609375,0.451171875,-0.134765625
358,3507219,3807219,-0.188720703,-0.796936035,0.298217773,0.490234375,0.1953125,-0.05859375,0.4140625,6.3515625,-6.3125,-3.3046875,-0.224609375,0.451171875,-0.134765625
359,3524245,3824245,-0.189758301,-0.79675293,0.297119141,0.490783691,0.1953125,-0.05859375,0.4140625,6.3515625,-6.3125,-3.3046875,-0.26171875,0.134765625,0.07421875
360,3533696,3833696,-0.190917969,-0.796875,0.296264648,0.490661621,-0.515625,-0.4609375,0.2421875,6.375,-6.296875,-3.2890625,-0.26171875,0.134765625,0.07421875
361,3545166,3845166,-0.192016602,-0.797180176,0.295593262,0.490112305,-0.515625,-0.4609375,0.2421875,6.375,-6.296875,-3.2890625,-0.212890625,-0.033203125,0.134765625
362,3550158,3850158,-0.192932129,-0.797424316,0.295288086,0.489562988,0.1796875,-0.49609375,-0.109375,6.3671875,-6.296875,-3.3203125,-0.212890625,-0.033203125,0.134765625
363,3559860,3859860,-0.193603516,-0.797485352,0.295532227,0.489013672,0.1796875,-0.49609375,-0.109375,6.3671875,-6.296875,-3.3203125,0.0078125,-0.08203125,0.16796875
364,3567148,3867148,-0.193969727,-0.797485352,0.296386719,0.48840332,0.46484375,-0.4140625,0.94921875,6.3515625,-6.3046875,-3.34375,0.0078125,-0.08203125,0.16796875
365,3581731,3881731,-0.193908691,-0.797424316,0.297912598,0.487670898,0.46484375,-0.4140625,0.94921875,6.3515625,-6.3046875,-3.34375,0.294921875,-0.193359375,0.197265625
366,3586764,3886764,-0.193603516,-0.797302246,0.299804688,0.486816406,0.41796875,-0.07421875,1.44921875,6.3203125,-6.3359375,-3.34375,0.294921875,-0.193359375,0.197265625
367,3602592,3902592,-0.193054199,-0.797302246,0.302124023,0.485534668,0.41796875,-0.07421875,1.44921875,6.3203125,-6.3359375,-3.34375,0.34375,-0.3515625,0.21484375
368,3610488,3910488,-0.192749023,-0.797607422,0.304077148,0.483947754,0.16015625,1.42578125,2.3203125,6.2734375,-6.3828125,-3.3359375,0.34375,-0.3515625,0.21484375
369,3621870,3921870,-0.192932129,-0.798278809,0.305786133,0.481689453,0.16015625,1.42578125,2.3203125,6.2734375,-6.3828125,-3.3359375,0.0546875,-0.48046875,0.32421875
370,3625463,3925463,-0.193603516,-0.799133301,0.307067871,0.479187012,0.03125,2.203125,3.02734375,6.2109375,-6.4296875,-3.3515625,0.0546875,-0.48046875,0.32421875
371,3641998,3941998,-0.194885254,-0.800354004,0.308288574,0.475830078,0.03125,2.203125,3.02734375,6.2109375,-6.4296875,-3.3515625,-0.146484375,-0.62890625,0.501953125
372,3645590,3945590,-0.196411133,-0.801635742,0.309570312,0.472229004,0.125,2.09375,3.37109375,6.1171875,-6.4765625,-3.4296875,-0.146484375,-0.62890625,0.501953125
373,3661842,3961842,-0.198364258,-0.803283691,0.311096191,0.467590332,0.125,2.09375,3.37109375,6.1171875,-6.4765625,-3.4296875,-0.21875,-0.873046875,0.70703125
374,3665438,3965438,-0.200317383,-0.804992676,0.312866211,0.462646484,0.59375,1.7734375,2.87109375,5.9921875,-6.5390625,-3.5390625,-0.21875,-0.873046875,0.70703125
375,3678682,3978682,-0.202331543,-0.806884766,0.315307617,0.456665039,0.59375,1.7734375,2.87109375,5.9921875,-6.5390625,-3.5390625,-0.10546875,-1.09375,0.8359375
376,3693601,3993601,-0.204223633,-0.80859375,0.318054199,0.450866699,0.99609375,1.1953125,2.2734375,5.8203125,-6.609375,-3.671875,-0.10546875,-1.09375,0.8359375
377,3703192,4003192,-0.205932617,-0.810119629,0.321228027,0.445129395,0.99609375,1.1953125,2.2734375,5.8203125,-6.609375,-3.671875,0.078125,-1.16796875,0.947265625
378,3707405,4007405,-0.207702637,-0.811584473,0.325073242,0.438781738,1.53515625,0.56640625,0.98046875,5.625,-6.7109375,-3.796875,0.078125,-1.16796875,0.947265625
379,3722128,4022128,-0.209655762,-0.813110352,0.329223633,0.431884766,1.53515625,0.56640625,0.98046875,5.625,-6.7109375,-3.796875,0.09765625,-1.2421875,1.04882812
380,3725860,4025860,-0.211914062,-0.81439209,0.332824707,0.425537109,2,0.0703125,0.78515625,5.390625,-6.828125,-3.90625,0.09765625,-1.2421875,1.04882812
381,3741037,4041037,-0.214904785,-0.815734863,0.336242676,0.418701172,2,0.0703125,0.78515625,5.390625,-6.828125,-3.90625,-0.158203125,-1.15234375,1.19335938
382,3744768,4044768,-0.218139648,-0.817382812,0.339172363,0.411437988,1.0546875,-1.6875,0.375,5.1484375,-6.9453125,-4.03125,-0.158203125,-1.15234375,1.19335938
383,3762189,4062189,-0.221191406,-0.819458008,0.342529297,0.402832031,1.0546875,-1.6875,0.375,5.1484375,-6.9453125,-4.03125,-0.1640625,-1.5546875,1.21875
384,3770720,4070720,-0.223510742,-0.821472168,0.346008301,0.394348145,0.109375,-2.19921875,-0.49609375,4.8671875,-7.046875,-4.1953125,-0.1640625,-1.5546875,1.21875
385,3784583,4084583,-0.225708008,-0.823791504,0.349914551,0.384643555,0.109375,-2.19921875,-0.49609375,4.8671875,-7.046875,-4.1953125,-0.1484375,-1.86914062,1.21289062
386,3789448,4089448,-0.227294922,-0.826538086,0.354309082,0.373718262,-0.0390625,-2.18359375,0.01171875,4.5546875,-7.140625,-4.359375,-0.1484375,-1.86914062,1.21289062
387,3800481,4100481,-0.227722168,-0.829162598,0.35949707,0.362487793,-0.0390625,-2.18359375,0.01171875,4.5546875,-7.140625,-4.359375,0.287109375,-2.37695312,1.14257812
388,3805512,4105512,-0.227600098,-0.831542969,0.365234375,0.351257324,-0.0234375,-2.03515625,-1.90625,4.1953125,-7.25,-4.546875,0.287109375,-2.37695312,1.14257812
389,3819774,4119774,-0.227233887,-0.833984375,0.371520996,0.338867188,-0.0234375,-2.03515625,-1.90625,4.1953125,-7.25,-4.546875,0.34375,-2.56445312,1.17382812
390,3824808,4124808,-0.226867676,-0.836303711,0.377929688,0.32598877,0.4375,-0.796875,-2.11328125,3.8125,-7.375,-4.6875,0.34375,-2.56445312,1.17382812
391,3839974,4139974,-0.22668457,-0.838439941,0.383850098,0.313415527,0.4375,-0.796875,-2.11328125,3.8125,-7.375,-4.6875,0.224609375,-2.46484375,1.21289062
392,3849252,4149252,-0.22644043,-0.840332031,0.390075684,0.300720215,0.21484375,-0.91015625,-1.3203125,3.3828125,-7.4921875,-4.828125,0.224609375,-2.46484375,1.21289062
393,3862474,4162474,-0.225830078,-0.84173584,0.396972656,0.287963867,0.21484375,-0.91015625,-1.3203125,3.3828125,-7.4921875,-4.828125,0.583984375,-2.68164062,1.28515625
394,3866118,4166118,-0.225036621,-0.842834473,0.404296875,0.274902344,-1.23046875,-1.58984375,-1.71484375,2.953125,-7.6171875,-4.9296875,0.583984375,-2.68164062,1.28515625
395,3880186,4180186,-0.224121094,-0.843688965,0.41217041,0.260803223,-1.23046875,-1.58984375,-1.71484375,2.953125,-7.6171875,-4.9296875,0.693359375,-2.80273438,1.3671875
396,3884975,4184975,-0.223266602,-0.844299316,0.419616699,0.247558594,-0.984375,-0.84375,-1.73828125,2.4765625,-7.75,-4.984375,0.693359375,-2.80273438,1.3671875
397,3899129,4199129,-0.222412109,-0.844726562,0.427001953,0.233764648,-0.984375,-0.84375,-1.73828125,2.4765625,-7.75,-4.984375,0.6171875,-2.77929688,1.3828125
398,3906045,4206045,-0.221496582,-0.845092773,0.434509277,0.218994141,-1.08203125,-0.0234375,-1.0703125,2,-7.8828125,-5,0.6171875,-2.77929688,1.3828125
399,3920625,4220625,-0.22076416,-0.845336914,0.441223145,0.204833984,-1.08203125,-0.0234375,-1.0703125,2,-7.8828125,-5,0.466796875,-2.78320312,1.40625
400,3928476,4228476,-0.220092773,-0.845458984,0.44732666,0.191345215,-0.61328125,0.23828125,-0.75,1.4921875,-7.9921875,-5.015625,0.466796875,-2.78320312,1.40625
401,3941023,4241023,-0.219360352,-0.845397949,0.453674316,0.177001953,-0.61328125,0.23828125,-0.75,1.4921875,-7.9921875,-5.015625,0.4375,-2.58007812,1.30859375
402,3944627,4244627,-0.21862793,-0.845214844,0.45904541,0.164550781,-0.0078125,0.2890625,-0.60546875,1,-8.078125,-5.0078125,0.4375,-2.58007812,1.30859375
403,3959349,4259349,-0.217773438,-0.844909668,0.464477539,0.151611328,-0.0078125,0.2890625,-0.60546875,1,-8.078125,-5.0078125,0.384765625,-2.3359375,1.15234375
404,3969075,4269075,-0.216918945,-0.844421387,0.469360352,0.139831543,-0.06640625,0.57421875,-0.2890625,0.5625,-8.1328125,-4.9765625,0.384765625,-2.3359375,1.15234375
405,3978278,4278278,-0.216247559,-0.843811035,0.473754883,0.129394531,-0.06640625,0.57421875,-0.2890625,0.5625,-8.1328125,-4.9765625,0.380859375,-2.03320312,1.04882812
406,3985182,4285182,-0.215576172,-0.843017578,0.478210449,0.118774414,-0.2578125,0.50390625,-0.22265625,0.1796875,-8.1796875,-4.9296875,0.380859375,-2.03320312,1.04882812
407,3998511,4298511,-0.214782715,-0.842224121,0.48236084,0.108886719,-0.2578125,0.50390625,-0.22265625,0.1796875,-8.1796875,-4.9296875,0.345703125,-1.8828125,0.921875
408,4006090,4306090,-0.213928223,-0.841430664,0.48614502,0.099609375,-0.4765625,0.97265625,-0.16015625,-0.1796875,-8.2265625,-4.875,0.345703125,-1.8828125,0.921875
409,4020653,4320653,-0.212890625,-0.840454102,0.490112305,0.0901489258,-0.4765625,0.97265625,-0.16015625,-0.1796875,-8.2265625,-4.875,0.388671875,-1.77148438,0.828125
410,4024259,4324259,-0.211791992,-0.839416504,0.493835449,0.0816040039,-0.3828125,0.61328125,-0.0390625,-0.5,-8.25,-4.8046875,0.388671875,-1.77148438,0.828125
411,4041454,4341454,-0.210388184,-0.838378906,0.497558594,0.0729370117,-0.3828125,0.61328125,-0.0390625,-0.5,-8.25,-4.8046875,0.33984375,-1.63671875,0.68359375
412,4047853,4347853,-0.20904541,-0.837524414,0.500549316,0.0653686523,-0.41015625,0.94921875,0.37109375,-0.78125,-8.28125,-4.71875,0.33984375,-1.63671875,0.68359375
413,4060730,4360730,-0.207519531,-0.836791992,0.503356934,0.0573730469,-0.41015625,0.94921875,0.37109375,-0.78125,-8.28125,-4.71875,0.15625,-1.5,0.56640625
414,4064351,4364351,-0.206176758,-0.836364746,0.505432129,0.0504150391,-0.3125,1.41796875,0.26171875,-1.03125,-8.2890625,-4.6484375,0.15625,-1.5,0.56640625
415,4078422,4378422,-0.204772949,-0.835998535,0.507263184,0.0432739258,-0.3125,1.41796875,0.26171875,-1.03125,-8.2890625,-4.6484375,0.0546875,-1.29296875,0.484375
416,4087081,4387081,-0.203613281,-0.835632324,0.508850098,0.0367431641,-0.24609375,0.84375,0.33984375,-1.25,-8.2890625,-4.609375,0.0546875,-1.29296875,0.484375
417,4098961,4398961,-0.202636719,-0.835205078,0.510314941,0.030456543,-0.24609375,0.84375,0.33984375,-1.25,-8.2890625,-4.609375,0.0546875,-1.14648438,0.451171875
418,4105063,4405063,-0.201660156,-0.834777832,0.511657715,0.025390625,-0.89453125,0.7578125,0.18359375,-1.4453125,-8.28125,-4.5703125,0.0546875,-1.14648438,0.451171875
419,4118971,4418971,-0.200744629,-0.834289551,0.513061523,0.0201416016,-0.89453125,0.7578125,0.18359375,-1.4453125,-8.28125,-4.5703125,0.06640625,-0.9296875,0.388671875
420,4122697,4422697,-0.200012207,-0.833862305,0.514221191,0.0157470703,-0.8515625,0.75,0.2890625,-1.6015625,-8.2734375,-4.5234375,0.06640625,-0.9296875,0.388671875
421,4140462,4440462,-0.19934082,-0.833374023,0.515380859,0.0112915039,-0.8515625,0.75,0.2890625,-1.6015625,-8.2734375,-4.5234375,0.064453125,-0.78515625,0.357421875
422,4144199,4444199,-0.198791504,-0.832946777,0.516357422,0.00756835938,-1.40234375,0.51171875,0.48046875,-1.7421875,-8.265625,-4.484375,0.064453125,-0.78515625,0.357421875
423,4157515,4457515,-0.198059082,-0.832580566,0.517272949,0.00402832031,-1.40234375,0.51171875,0.48046875,-1.7421875,-8.265625,-4.484375,0.041015625,-0.65625,0.21875
424,4166618,4466618,-0.197143555,-0.832275391,0.518127441,0.0009765625,-1.5234375,0.4765625,0.52734375,-1.8515625,-8.265625,-4.453125,0.041015625,-0.65625,0.21875
425,4178555,4478555,0.195983887,0.83203125,-0.518981934,0.00170898438,-1.5234375,0.4765625,0.52734375,-1.8515625,-8.265625,-4.453125,0.078125,-0.55859375,0.056640625
426,4183220,4483220,0.194824219,0.831787109,-0.519714355,0.00396728516,-1.51171875,0.4375,0.48828125,-1.9375,-8.265625,-4.4140625,0.078125,-0.55859375,0.056640625
427,4199066,4499066,0.19342041,0.831665039,-0.520446777,0.00622558594,-1.51171875,0.4375,0.48828125,-1.9375,-8.265625,-4.4140625,0.03515625,-0.50390625,-0.03515625
428,4206377,4506377,0.191894531,0.831665039,-0.520935059,0.00793457031,-1.49609375,0.62890625,0.2734375,-1.9921875,-8.265625,-4.390625,0.03515625,-0.50390625,-0.03515625
429,4215486,4515486,0.190124512,0.831848145,-0.521362305,0.00946044922,-1.49609375,0.62890625,0.2734375,-1.9921875,-8.265625,-4.390625,-0.0234375,-0.41796875,-0.169921875
430,4223251,4523251,0.188354492,0.83215332,-0.521484375,0.0104980469,-1.05078125,0.93359375,-0.09375,-2.015625,-8.265625,-4.3671875,-0.0234375,-0.41796875,-0.169921875
431,4236461,4536461,0.186645508,0.832580566,-0.52142334,0.0109863281,-1.05078125,0.93359375,-0.09375,-2.015625,-8.265625,-4.3671875,-0.095703125,-0.189453125,-0.259765625
432,4244669,4544669,0.185180664,0.833068848,-0.521118164,0.010925293,-0.40234375,0.8984375,-0.02734375,-2.015625,-8.265625,-4.359375,-0.095703125,-0.189453125,-0.259765625
433,4259422,4559422,0.183837891,0.833679199,-0.520690918,0.0103759766,-0.40234375,0.8984375,-0.02734375,-2.015625,-8.265625,-4.359375,-0.123046875,0.015625,-0.306640625
434,4263161,4563161,0.182678223,0.834289551,-0.520141602,0.00952148438,-0.6015625,0.78125,0.296875,-1.96875,-8.265625,-4.375,-0.123046875,0.015625,-0.306640625
435,4278632,4578632,0.181518555,0.835021973,-0.519348145,0.00823974609,-0.6015625,0.78125,0.296875,-1.96875,-8.265625,-4.375,-0.169921875,0.1328125,-0.34375
436,4285502,4585502,0.180480957,0.83581543,-0.518493652,0.00689697266,-1.109375,0.7421875,0.44140625,-1.921875,-8.265625,-4.40625,-0.169921875,0.1328125,-0.34375
437,4297963,4597963,0.179504395,0.836730957,-0.517272949,0.00518798828,-1.109375,0.7421875,0.44140625,-1.921875,-8.265625,-4.40625,-0.244140625,0.2578125,-0.36328125
438,4302770,4602770,0.178771973,0.83770752,-0.515991211,0.00323486328,-1.1875,0.66015625,0.3671875,-1.84375,-8.2578125,-4.4453125,-0.244140625,0.2578125,-0.36328125
439,4317469,4617469,0.178344727,0.838867188,-0.514343262,0.000427246094,-1.1875,0.66015625,0.3671875,-1.84375,-8.2578125,-4.4453125,-0.30078125,0.578125,-0.41796875
440,4327473,4627473,-0.178283691,-0.840026855,0.512390137,0.00354003906,-0.55078125,0.34375,0.66015625,-1.75,-8.25,-4.5078125,-0.30078125,0.578125,-0.41796875
441,4336227,4636227,-0.178649902,-0.841064453,0.510498047,0.00830078125,-0.55078125,0.34375,0.66015625,-1.75,-8.25,-4.5078125,-0.220703125,1.0078125,-0.466796875
442,4343321,4643321,-0.179504395,-0.841918945,0.508728027,0.0137329102,-0.46875,0.0625,0.8046875,-1.6015625,-8.234375,-4.578125,-0.220703125,1.0078125,-0.466796875
443,4356760,4656760,-0.180603027,-0.842590332,0.506958008,0.0197143555,-0.46875,0.0625,0.8046875,-1.6015625,-8.234375,-4.578125,-0.12109375,1.27734375,-0.4765625
444,4363108,4663108,-0.181884766,-0.843139648,0.505310059,0.0267333984,-0.87109375,-0.67578125,0.40625,-1.4296875,-8.2265625,-4.640625,-0.12109375,1.27734375,-0.4765625
445,4377204,4677204,-0.182983398,-0.843505859,0.503845215,0.0338745117,-0.87109375,-0.67578125,0.40625,-1.4296875,-8.2265625,-4.640625,-0.0234375,1.41210938,-0.595703125
446,4383178,4683178,-0.183959961,-0.843933105,0.502197266,0.0417480469,-1.08203125,-0.28515625,0.4453125,-1.21875,-8.234375,-4.6796875,-0.0234375,1.41210938,-0.595703125
447,4397074,4697074,-0.184631348,-0.844421387,0.500488281,0.0492553711,-1.08203125,-0.28515625,0.4453125,-1.21875,-8.234375,-4.6796875,-0.091796875,1.5390625,-0.76171875
448,4408649,4708649,-0.185302734,-0.844970703,0.498291016,0.0584106445,-0.98046875,-0.078125,0.265625,-0.9765625,-8.25,-4.7265625,-0.091796875,1.5390625,-0.76171875
449,4418690,4718690,-0.185913086,-0.845458984,0.496154785,0.0668334961,-0.98046875,-0.078125,0.265625,-0.9765625,-8.25,-4.7265625,-0.111328125,1.73242188,-0.841796875
450,4422423,4722423,-0.186828613,-0.845825195,0.493774414,0.0763549805,-0.6953125,-0.15234375,0.37890625,-0.6875,-8.25,-4.765625,-0.111328125,1.73242188,-0.841796875
451,4436598,4736598,-0.188049316,-0.846069336,0.491149902,0.0873413086,-0.6953125,-0.15234375,0.37890625,-0.6875,-8.25,-4.765625,-0.0390625,2.015625,-0.87109375
452,4442213,4742213,-0.18939209,-0.84588623,0.488891602,0.0978393555,-0.6328125,-0.65234375,0.06640625,-0.3671875,-8.25,-4.796875,-0.0390625,2.015625,-0.87109375
453,4457064,4757064,-0.191040039,-0.845458984,0.486633301,0.10925293,-0.6328125,-0.65234375,0.06640625,-0.3671875,-8.25,-4.796875,0.099609375,2.16992188,-0.85546875
454,4462121,4762121,-0.192443848,-0.844787598,0.484619141,0.120056152,-0.80859375,-0.69140625,-0.1953125,-0.0390625,-8.25,-4.8046875,0.099609375,2.16992188,-0.85546875
455,4476217,4776217,-0.193725586,-0.843994141,0.482299805,0.132324219,-0.80859375,-0.69140625,-0.1953125,-0.0390625,-8.25,-4.8046875,0.126953125,2.1953125,-1.00195312
456,4486203,4786203,-0.194580078,-0.843261719,0.479858398,0.144104004,-0.59765625,-0.0703125,-0.453125,0.328125,-8.2578125,-4.7734375,0.126953125,2.1953125,-1.00195312
457,4497550,4797550,-0.195007324,-0.842590332,0.476989746,0.156494141,-0.59765625,-0.0703125,-0.453125,0.328125,-8.2578125,-4.7734375,0.029296875,2.22265625,-1.18945312
458,4501272,4801272,-0.1953125,-0.84197998,0.473999023,0.16809082,-0.4453125,0.50390625,-0.984375,0.7109375,-8.2578125,-4.7421875,0.029296875,2.22265625,-1.18945312
459,4518344,4818344,-0.195678711,-0.841369629,0.469970703,0.18145752,-0.4453125,0.50390625,-0.984375,0.7109375,-8.2578125,-4.7421875,-0.14453125,2.40429688,-1.24804688
460,4524836,4824836,-0.196350098,-0.840637207,0.466003418,0.193847656,-0.1328125,0.55078125,-0.671875,1.125,-8.2265625,-4.7109375,-0.14453125,2.40429688,-1.24804688
461,4537623,4837623,-0.197265625,-0.839599609,0.461547852,0.207763672,-0.1328125,0.55078125,-0.671875,1.125,-8.2265625,-4.7109375,-0.126953125,2.53125,-1.20117188
462,4541241,4841241,-0.198181152,-0.838439941,0.457580566,0.220031738,-0.484375,-0.1484375,-0.6796875,1.5546875,-8.1796875,-4.6640625,-0.126953125,2.53125,-1.20117188
463,4555474,4855474,-0.199035645,-0.836975098,0.453491211,0.232849121,-0.484375,-0.1484375,-0.6796875,1.5546875,-8.1796875,-4.6640625,-0.060546875,2.27929688,-1.07421875
464,4565075,4865075,-0.199645996,-0.835693359,0.449645996,0.24420166,-0.26953125,0.34375,-0.3203125,1.953125,-8.1328125,-4.6015625,-0.060546875,2.27929688,-1.07421875
465,4575129,4875129,-0.200012207,-0.834594727,0.445495605,0.254943848,-0.26953125,0.34375,-0.3203125,1.953125,-8.1328125,-4.6015625,-0.224609375,1.92382812,-1.03710938
466,4583633,4883633,-0.200317383,-0.83392334,0.441101074,0.264282227,0.28125,0.81640625,-0.58203125,2.3203125,-8.0703125,-4.53125,-0.224609375,1.92382812,-1.03710938
467,4596951,4896951,-0.200622559,-0.833496094,0.436279297,0.273376465,0.28125,0.81640625,-0.58203125,2.3203125,-8.0703125,-4.53125,-0.423828125,1.74609375,-0.984375
468,4604219,4904219,-0.200805664,-0.832580566,0.432006836,0.282531738,1.1953125,0.43359375,-0.52734375,2.6328125,-7.9921875,-4.5078125,-0.423828125,1.74609375,-0.984375
469,4618049,4918049,-0.200866699,-0.830932617,0.428222656,0.293029785,1.1953125,0.43359375,-0.52734375,2.6328125,-7.9921875,-4.5078125,0.021484375,1.96289062,-0.9921875
470,4621658,4921658,-0.20111084,-0.828979492,0.425170898,0.30267334,1.3359375,0.1328125,-0.5703125,2.953125,-7.921875,-4.4296875,0.021484375,1.96289062,-0.9921875
471,4639988,4939988,-0.201477051,-0.826660156,0.422241211,0.312744141,1.3359375,0.1328125,-0.5703125,2.953125,-7.921875,-4.4296875,0.14453125,1.78710938,-0.79296875
472,4648955,4948955,-0.201293945,-0.824279785,0.420410156,0.321472168,0.37109375,-0.4609375,-0.15625,3.265625,-7.8671875,-4.3046875,0.14453125,1.78710938,-0.79296875
473,4654820,4954820,-0.200317383,-0.821777344,0.419555664,0.329467773,0.37109375,-0.4609375,-0.15625,3.265625,-7.8671875,-4.3046875,0.52734375,1.32226562,-0.822265625
474,4662995,4962995,-0.198547363,-0.819641113,0.419067383,0.336486816,0.12109375,-0.25390625,-0.19921875,3.515625,-7.84375,-4.1484375,0.52734375,1.32226562,-0.822265625
475,4675165,4975165,-0.196105957,-0.817687988,0.418212891,0.343505859,0.12109375,-0.25390625,-0.19921875,3.515625,-7.84375,-4.1484375,0.390625,0.986328125,-0.9609375
476,4681218,4981218,-0.193664551,-0.81652832,0.416748047,0.349365234,0.61328125,1.29296875,0.09765625,3.75,-7.8203125,-3.984375,0.390625,0.986328125,-0.9609375
477,4695068,4995068,-0.191589355,-0.816101074,0.414245605,0.354492188,0.61328125,1.29296875,0.09765625,3.75,-7.8203125,-3.984375,-0.146484375,0.7421875,-0.8828125
478,4701033,5001033,-0.190124512,-0.816040039,0.411193848,0.358947754,0.86328125,0.734375,-0.171875,3.9609375,-7.7578125,-3.90625,-0.146484375,0.7421875,-0.8828125
479,4714217,5014217,-0.188720703,-0.815917969,0.408081055,0.363525391,0.86328125,0.734375,-0.171875,3.9609375,-7.7578125,-3.90625,-0.146484375,0.759765625,-0.814453125
480,4725597,5025597,-0.186889648,-0.815185547,0.406066895,0.368286133,0.375,-1.54296875,-1,4.140625,-7.6640625,-3.8828125,-0.146484375,0.759765625,-0.814453125
481,4735224,5035224,-0.184570312,-0.813781738,0.405090332,0.373657227,0.375,-1.54296875,-1,4.140625,-7.6640625,-3.8828125,0.470703125,0.91796875,-0.87109375
482,4741202,5041202,-0.182128906,-0.811462402,0.404602051,0.380249023,0.49609375,-1.59765625,-1.2109375,4.328125,-7.609375,-3.7890625,0.470703125,0.91796875,-0.87109375
483,4758127,5058127,-0.180358887,-0.808837891,0.404296875,0.387023926,0.49609375,-1.59765625,-1.2109375,4.328125,-7.609375,-3.7890625,0.56640625,1.296875,-0.74609375
484,4762845,5062845,-0.179077148,-0.805908203,0.403747559,0.394287109,0.859375,-0.2890625,1.03125,4.5390625,-7.578125,-3.6171875,0.56640625,1.296875,-0.74609375
485,4774471,5074471,-0.177978516,-0.803344727,0.402587891,0.401123047,0.859375,-0.2890625,1.03125,4.5390625,-7.578125,-3.6171875,0.240234375,1.19921875,-0.748046875
486,4780193,5080193,-0.177124023,-0.801696777,0.400268555,0.407165527,0.76953125,1.08984375,1.37890625,4.7421875,-7.5390625,-3.4296875,0.240234375,1.19921875,-0.748046875
487,4793849,5093849,-0.176818848,-0.801025391,0.39642334,0.41229248,0.76953125,1.08984375,1.37890625,4.7421875,-7.5390625,-3.4296875,-0.5703125,0.974609375,-0.740234375
488,4805207,5105207,-0.177490234,-0.801025391,0.391357422,0.416748047,1.39453125,2.16015625,1.1484375,4.921875,-7.4609375,-3.3515625,-0.5703125,0.974609375,-0.740234375
489,4815976,5115976,-0.178894043,-0.801208496,0.386047363,0.420776367,1.39453125,2.16015625,1.1484375,4.921875,-7.4609375,-3.3515625,-0.888671875,0.939453125,-0.505859375
490,4819589,5119589,-0.180725098,-0.801269531,0.380859375,0.424499512,1.39453125,1.27734375,0.90625,5.078125,-7.34375,-3.375,-0.888671875,0.939453125,-0.505859375
491,4832554,5132554,-0.182739258,-0.800964355,0.376220703,0.428344727,1.39453125,1.27734375,0.90625,5.078125,-7.34375,-3.375,-0.642578125,0.9375,-0.3046875
492,4842609,5142609,-0.184326172,-0.800231934,0.372558594,0.432312012,0.8828125,-0.88671875,1.03515625,5.203125,-7.25,-3.390625,-0.642578125,0.9375,-0.3046875
493,4853738,5153738,-0.185180664,-0.79901123,0.369750977,0.436523438,0.8828125,-0.88671875,1.03515625,5.203125,-7.25,-3.390625,-0.166015625,0.93359375,-0.43359375
494,4859454,5159454,-0.185241699,-0.797790527,0.367431641,0.440673828,0.61328125,0.01171875,1.1484375,5.3203125,-7.1875,-3.3515625,-0.166015625,0.93359375,-0.43359375
495,4876503,5176503,-0.184692383,-0.796936035,0.36529541,0.444274902,0.61328125,0.01171875,1.1484375,5.3203125,-7.1875,-3.3515625,-0.08984375,0.66015625,-0.544921875
496,4884467,5184467,-0.183776855,-0.796325684,0.363098145,0.447509766,0.296875,0.4140625,1.38671875,5.4453125,-7.1328125,-3.28125,-0.08984375,0.66015625,-0.544921875
497,4895070,5195070,-0.182556152,-0.795959473,0.360656738,0.450561523,0.296875,0.4140625,1.38671875,5.4453125,-7.1328125,-3.28125,-0.126953125,0.453125,-0.59375
498,4898667,5198667,-0.18145752,-0.795837402,0.358520508,0.452941895,0.2578125,0.60546875,0.80859375,5.5625,-7.0546875,-3.2421875,-0.126953125,0.453125,-0.59375
499,4917245,5217245,-0.180358887,-0.795776367,0.356079102,0.455444336,0.2578125,0.60546875,0.80859375,5.5625,-7.0546875,-3.2421875,-0.1796875,0.3828125,-0.5234375
500,4921596,5221596,-0.179443359,-0.795654297,0.353942871,0.457641602,0.4921875,0.296875,0.85546875,5.671875,-6.9765625,-3.2109375,-0.1796875,0.3828125,-0.5234375
501,4933795,5233795,-0.178588867,-0.795471191,0.352233887,0.459594727,0.4921875,0.296875,0.85546875,5.671875,-6.9765625,-3.2109375,-0.07421875,0.3515625,-0.41796875
502,4938825,5238825,-0.177734375,-0.795043945,0.350830078,0.461730957,0.4453125,-0.30078125,0.91015625,5.7578125,-6.9140625,-3.1875,-0.07421875,0.3515625,-0.41796875
503,4955606,5255606,-0.177062988,-0.794555664,0.349914551,0.463623047,0.4453125,-0.30078125,0.91015625,5.7578125,-6.9140625,-3.1875,0.048828125,0.333984375,-0.275390625
504,4964627,5264627,-0.176513672,-0.793945312,0.34942627,0.465209961,0.296875,-0.03515625,1.328125,5.828125,-6.875,-3.1484375,0.048828125,0.333984375,-0.275390625
505,4974445,5274445,-0.176147461,-0.793334961,0.349182129,0.466491699,0.296875,-0.03515625,1.328125,5.828125,-6.875,-3.1484375,0.091796875,0.208984375,-0.1015625
506,4978175,5278175,-0.176025391,-0.79284668,0.349182129,0.467407227,0.13671875,0.2578125,1.671875,5.875,-6.859375,-3.109375,0.091796875,0.208984375,-0.1015625
507,4996276,5296276,-0.176147461,-0.792480469,0.349243164,0.467956543,0.13671875,0.2578125,1.671875,5.875,-6.859375,-3.109375,0.037109375,0.111328125,0.015625
508,5000731,5300731,-0.176391602,-0.792297363,0.349304199,0.468200684,0.265625,0.33203125,2.09375,5.8984375,-6.859375,-3.0703125,0.037109375,0.111328125,0.015625
509,5012950,5312950,-0.176757812,-0.792297363,0.349304199,0.467956543,0.265625,0.33203125,2.09375,5.8984375,-6.859375,-3.0703125,-0.091796875,-0.052734375,0.09765625
510,5019326,5319326,-0.177490234,-0.792663574,0.349060059,0.467285156,0.08203125,0.83203125,2.0546875,5.890625,-6.859375,-3.0703125,-0.091796875,-0.052734375,0.09765625
511,5036616,5336616,-0.178588867,-0.793212891,0.348754883,0.466186523,0.08203125,0.83203125,2.0546875,5.890625,-6.859375,-3.0703125,-0.26953125,-0.1640625,0.236328125
512,5045698,5345698,-0.179992676,-0.793945312,0.348388672,0.464599609,0.19140625,0.609375,2.27734375,5.859375,-6.8671875,-3.1015625,-0.26953125,-0.1640625,0.236328125
513,5055726,5355726,-0.18157959,-0.794921875,0.348144531,0.462524414,0.19140625,0.609375,2.27734375,5.859375,-6.8671875,-3.1015625,-0.32421875,-0.333984375,0.37109375
514,5060117,5360117,-0.183227539,-0.795898438,0.348144531,0.460144043,0.24609375,0.703125,2.41796875,5.8046875,-6.8828125,-3.1640625,-0.32421875,-0.333984375,0.37109375
515,5076300,5376300,-0.185119629,-0.797058105,0.348510742,0.45715332,0.24609375,0.703125,2.41796875,5.8046875,-6.8828125,-3.1640625,-0.263671875,-0.458984375,0.50390625
516,5079912,5379912,-0.187011719,-0.798095703,0.349243164,0.453979492,0.3671875,0.76953125,2.54296875,5.71875,-6.9140625,-3.25,-0.263671875,-0.458984375,0.50390625
517,5092860,5392860,-0.189147949,-0.799194336,0.350524902,0.450195312,0.3671875,0.76953125,2.54296875,5.71875,-6.9140625,-3.25,-0.177734375,-0.62890625,0.71875
518,5099769,5399769,-0.19128418,-0.800170898,0.352416992,0.445983887,0.9453125,0.39453125,2.51953125,5.6015625,-6.9609375,-3.34375,-0.177734375,-0.62890625,0.71875
519,5115533,5415533,-0.19317627,-0.801269531,0.354858398,0.441223145,0.9453125,0.39453125,2.51953125,5.6015625,-6.9609375,-3.34375,0.009765625,-0.921875,0.83984375
520,5124677,5424677,-0.194702148,-0.80255127,0.357666016,0.435974121,1.02734375,0.12890625,1.95703125,5.4453125,-7.0390625,-3.4296875,0.009765625,-0.921875,0.83984375
521,5135944,5435944,-0.196411133,-0.804199219,0.360839844,0.42956543,1.02734375,0.12890625,1.95703125,5.4453125,-7.0390625,-3.4296875,-0.0390625,-1.23632812,0.9765625
522,5140889,5440889,-0.198608398,-0.806091309,0.364074707,0.422119141,1.34375,0.22265625,0.90625,5.2421875,-7.1328125,-3.53125,-0.0390625,-1.23632812,0.9765625
523,5157276,5457276,-0.20111084,-0.807983398,0.366699219,0.414978027,1.34375,0.22265625,0.90625,5.2421875,-7.1328125,-3.53125,-0.287109375,-1.24609375,1.13476562
524,5161270,5461270,-0.204284668,-0.809997559,0.368835449,0.407592773,1.81640625,-0.2109375,0.3984375,5,-7.234375,-3.671875,-0.287109375,-1.24609375,1.13476562
525,5171896,5471896,-0.207702637,-0.812072754,0.370605469,0.400024414,1.81640625,-0.2109375,0.3984375,5,-7.234375,-3.671875,-0.4609375,-1.28515625,1.19726562
526,5178797,5478797,-0.2109375,-0.814331055,0.372741699,0.391662598,1.23046875,-1.0078125,-0.3046875,4.7421875,-7.3203125,-3.8515625,-0.4609375,-1.28515625,1.19726562
527,5194279,5494279,-0.214050293,-0.816650391,0.375244141,0.38269043,1.23046875,-1.0078125,-0.3046875,4.7421875,-7.3203125,-3.8515625,-0.359375,-1.578125,1.3125
528,5202505,5502505,-0.216918945,-0.818786621,0.377990723,0.373657227,1.2890625,-0.8828125,-0.34765625,4.453125,-7.40625,-4.0390625,-0.359375,-1.578125,1.3125
529,5211469,5511469,-0.219909668,-0.821166992,0.381774902,0.362792969,1.2890625,-0.8828125,-0.34765625,4.453125,-7.40625,-4.0390625,-0.162109375,-1.94140625,1.44921875
530,5218361,5518361,-0.222167969,-0.823303223,0.386352539,0.35144043,0.953125,-1.5546875,-1.546875,4.1015625,-7.5,-4.21875,-0.162109375,-1.94140625,1.44921875
531,5236543,5536543,-0.223876953,-0.825317383,0.391662598,0.339538574,0.953125,-1.5546875,-1.546875,4.1015625,-7.5,-4.21875,0.138671875,-2.24414062,1.46679688
532,5241080,5541080,-0.224853516,-0.827026367,0.397216797,0.328186035,0.8515625,-1.859375,-1.53515625,3.703125,-7.6171875,-4.3828125,0.138671875,-2.24414062,1.46679688
533,5253549,5553549,-0.225341797,-0.828613281,0.403808594,0.315551758,0.8515625,-1.859375,-1.53515625,3.703125,-7.6171875,-4.3828125,0.38671875,-2.40820312,1.375
534,5257298,5557298,-0.225341797,-0.82989502,0.41015625,0.303710938,0.00390625,-1.28125,-1.578125,3.2890625,-7.734375,-4.4921875,0.38671875,-2.40820312,1.375
535,5274749,5574749,-0.224731445,-0.831054688,0.417480469,0.29083252,0.00390625,-1.28125,-1.578125,3.2890625,-7.734375,-4.4921875,0.6171875,-2.50390625,1.27539062
536,5283655,5583655,-0.223937988,-0.83190918,0.424133301,0.279052734,-0.1875,-0.4609375,-1.66015625,2.8671875,-7.8671875,-4.5625,0.6171875,-2.50390625,1.27539062
537,5292326,5592326,-0.223083496,-0.832763672,0.431030273,0.266357422,-0.1875,-0.4609375,-1.66015625,2.8671875,-7.8671875,-4.5625,0.546875,-2.55078125,1.28710938
538,5298293,5598293,-0.222045898,-0.833496094,0.438110352,0.252990723,-0.9609375,-0.11328125,-1.1171875,2.453125,-7.984375,-4.609375,0.546875,-2.55078125,1.28710938
539,5316473,5616473,-0.221191406,-0.83404541,0.443908691,0.241699219,-0.9609375,-0.11328125,-1.1171875,2.453125,-7.984375,-4.609375,0.48828125,-2.34960938,1.18359375
540,5317942,5617942,-0.220336914,-0.834350586,0.450134277,0.229492188,-0.87890625,0.02734375,-1.0078125,2.0234375,-8.0859375,-4.640625,0.48828125,-2.34960938,1.18359375
541,5330467,5630467,-0.219604492,-0.834533691,0.455871582,0.217895508,-0.87890625,0.02734375,-1.0078125,2.0234375,-8.0859375,-4.640625,0.439453125,-2.21875,1.18554688
542,5337371,5637371,-0.219116211,-0.834594727,0.461303711,0.206665039,-1.0859375,0.390625,-0.93359375,1.6171875,-8.1796875,-4.640625,0.439453125,-2.21875,1.18554688
543,5356136,5656136,-0.21862793,-0.834472656,0.466491699,0.195617676,-1.0859375,0.390625,-0.93359375,1.6171875,-8.1796875,-4.640625,0.388671875,-2.0703125,1.14257812
544,5357607,5657607,-0.218200684,-0.834350586,0.471252441,0.184875488,-0.80859375,0.7265625,-0.78125,1.2265625,-8.25,-4.640625,0.388671875,-2.0703125,1.14257812
545,5371393,5671393,-0.217834473,-0.83416748,0.475708008,0.174438477,-0.80859375,0.7265625,-0.78125,1.2265625,-8.25,-4.640625,0.29296875,-1.95898438,1.08007812
546,5379252,5679252,-0.217346191,-0.833984375,0.479919434,0.164245605,-0.48046875,0.62890625,-0.7578125,0.859375,-8.3046875,-4.625,0.29296875,-1.95898438,1.08007812
547,5393374,5693374,-0.216796875,-0.833740234,0.483703613,0.154724121,-0.48046875,0.62890625,-0.7578125,0.859375,-8.3046875,-4.625,0.212890625,-1.75390625,0.94140625
548,5396984,5696984,-0.216430664,-0.833557129,0.486816406,0.146057129,0.1171875,1.05078125,-0.359375,0.53125,-8.34375,-4.6015625,0.212890625,-1.75390625,0.94140625
549,5409743,5709743,-0.216125488,-0.833374023,0.489929199,0.137145996,0.1171875,1.05078125,-0.359375,0.53125,-8.34375,-4.6015625,0.138671875,-1.51757812,0.85546875
550,5416642,5716642,-0.215942383,-0.833129883,0.492553711,0.12902832,0.0390625,1.07421875,-0.3359375,0.2265625,-8.3671875,-4.5859375,0.138671875,-1.51757812,0.85546875
551,5434580,5734580,-0.215759277,-0.833007812,0.494750977,0.121582031,0.0390625,1.07421875,-0.3359375,0.2265625,-8.3671875,-4.5859375,0.04296875,-1.3984375,0.794921875
552,5443449,5743449,-0.215454102,-0.832885742,0.496948242,0.113586426,-0.30859375,1.16796875,-0.06640625,-0.0390625,-8.3828125,-4.5859375,0.04296875,-1.3984375,0.794921875
553,5452836,5752836,-0.21496582,-0.832763672,0.499084473,0.105895996,-0.30859375,1.16796875,-0.06640625,-0.0390625,-8.3828125,-4.5859375,0.05859375,-1.41210938,0.740234375
554,5456429,5756429,-0.214416504,-0.832580566,0.501098633,0.0988769531,-0.3671875,0.2109375,0.30078125,-0.2890625,-8.3828125,-4.5703125,0.05859375,-1.41210938,0.740234375
555,5473493,5773493,-0.213684082,-0.832458496,0.502990723,0.0916748047,-0.3671875,0.2109375,0.30078125,-0.2890625,-8.3828125,-4.5703125,0.00390625,-1.28515625,0.59765625
556,5477105,5777105,-0.21295166,-0.832336426,0.504577637,0.0852661133,-0.7421875,-0.05859375,0.19921875,-0.5234375,-8.3828125,-4.546875,0.00390625,-1.28515625,0.59765625
557,5491195,5791195,-0.212219238,-0.83215332,0.506286621,0.0784301758,-0.7421875,-0.05859375,0.19921875,-0.5234375,-8.3828125,-4.546875,0.04296875,-1.1640625,0.568359375
558,5497177,5797177,-0.211669922,-0.831848145,0.50793457,0.0723876953,-0.80078125,0.203125,0.22265625,-0.734375,-8.375,-4.53125,0.04296875,-1.1640625,0.568359375
559,5512019,5812019,-0.211364746,-0.831359863,0.509643555,0.0671386719,-0.80078125,0.203125,0.22265625,-0.734375,-8.375,-4.53125,0.130859375,-0.927734375,0.53515625
560,5521791,5821791,-0.211364746,-0.830749512,0.511169434,0.0624389648,-0.99609375,0.46875,0.421875,-0.921875,-8.375,-4.5,0.130859375,-0.927734375,0.53515625
561,5531806,5831806,-0.211547852,-0.829956055,0.512878418,0.0579223633,-0.99609375,0.46875,0.421875,-0.921875,-8.375,-4.5,0.212890625,-0.802734375,0.541015625
562,5536601,5836601,-0.211730957,-0.829101562,0.514709473,0.0535888672,-1.9453125,0.35546875,-0.0390625,-1.0859375,-8.375,-4.4609375,0.212890625,-0.802734375,0.541015625
563,5553746,5853746,-0.211975098,-0.828186035,0.516418457,0.049621582,-1.9453125,0.35546875,-0.0390625,-1.0859375,-8.375,-4.4609375,0.203125,-0.658203125,0.5
564,5557968,5857968,-0.212402344,-0.827331543,0.518005371,0.0458984375,-1.48046875,0.203125,0.51953125,-1.2421875,-8.375,-4.40625,0.203125,-0.658203125,0.5
565,5570450,5870450,-0.21282959,-0.826538086,0.51940918,0.0423583984,-1.48046875,0.203125,0.51953125,-1.2421875,-8.375,-4.40625,0.1484375,-0.5703125,0.48046875
566,5576803,5876803,-0.213134766,-0.825744629,0.520751953,0.0390625,-1.76953125,-0.01953125,0.51953125,-1.375,-8.3828125,-4.3671875,0.1484375,-0.5703125,0.48046875
567,5591254,5891254,-0.213317871,-0.825012207,0.522094727,0.035949707,-1.76953125,-0.01953125,0.51953125,-1.375,-8.3828125,-4.3671875,0.138671875,-0.546875,0.3984375
568,5599969,5899969,-0.213439941,-0.824401855,0.523193359,0.0330200195,-1.94921875,0.5234375,0.31640625,-1.5,-8.390625,-4.3203125,0.138671875,-0.546875,0.3984375
569,5610896,5910896,-0.213500977,-0.823730469,0.524353027,0.0302124023,-1.94921875,0.5234375,0.31640625,-1.5,-8.390625,-4.3203125,0.130859375,-0.44921875,0.318359375
570,5615930,5915930,-0.213684082,-0.823181152,0.52532959,0.0279541016,-1.6484375,0.29296875,0.31640625,-1.609375,-8.390625,-4.28125,0.130859375,-0.44921875,0.318359375
571,5629488,5929488,-0.213867188,-0.822509766,0.526428223,0.0258789062,-1.6484375,0.29296875,0.31640625,-1.609375,-8.390625,-4.28125,0.15625,-0.3046875,0.244140625
572,5636325,5936325,-0.214050293,-0.821899414,0.52734375,0.0242919922,-1.48828125,0.5234375,0.24609375,-1.6953125,-8.390625,-4.25,0.15625,-0.3046875,0.244140625
573,5649377,5949377,-0.214233398,-0.821289062,0.528198242,0.0228881836,-1.48828125,0.5234375,0.24609375,-1.6953125,-8.390625,-4.25,0.126953125,-0.248046875,0.20703125
574,5656321,5956321,-0.214355469,-0.820861816,0.528991699,0.0215454102,-1.46484375,0.6015625,0.24609375,-1.7578125,-8.390625,-4.2109375,0.126953125,-0.248046875,0.20703125
575,5673208,5973208,-0.214172363,-0.820495605,0.529602051,0.0204467773,-1.46484375,0.6015625,0.24609375,-1.7578125,-8.390625,-4.2109375,0.072265625,-0.212890625,0.076171875
576,5681521,5981521,-0.213806152,-0.820373535,0.529968262,0.0195922852,-1.30078125,0.9453125,0.26171875,-1.8046875,-8.390625,-4.1875,0.072265625,-0.212890625,0.076171875
577,5691407,5991407,-0.213195801,-0.82043457,0.530151367,0.0190429688,-1.30078125,0.9453125,0.26171875,-1.8046875,-8.390625,-4.1875,-0.0234375,-0.162109375,-0.06640625
578,5695009,5995009,-0.212402344,-0.820617676,0.530151367,0.0186767578,-1.09375,0.83203125,0.25390625,-1.8203125,-8.390625,-4.1796875,-0.0234375,-0.162109375,-0.06640625
579,5709506,6009506,-0.211425781,-0.820983887,0.530090332,0.0184936523,-1.09375,0.83203125,0.25390625,-1.8203125,-8.390625,-4.1796875,-0.06640625,-0.115234375,-0.169921875
580,5715472,6015472,-0.210388184,-0.821350098,0.529846191,0.0184936523,-1.09375,0.71484375,0.17578125,-1.8203125,-8.390625,-4.1796875,-0.06640625,-0.115234375,-0.169921875
581,5729535,6029535,-0.209289551,-0.821899414,0.52947998,0.0187988281,-1.09375,0.71484375,0.17578125,-1.8203125,-8.390625,-4.1796875,-0.11328125,-0.021484375,-0.2421875
582,5737158,6037158,-0.208312988,-0.82244873,0.528930664,0.01953125,-0.85546875,0.72265625,0.1171875,-1.7890625,-8.3984375,-4.1953125,-0.11328125,-0.021484375,-0.2421875
583,5749157,6049157,-0.207519531,-0.823181152,0.528137207,0.0207519531,-0.85546875,0.72265625,0.1171875,-1.7890625,-8.3984375,-4.1953125,-0.15234375,0.22265625,-0.314453125
584,5757843,6057843,-0.206970215,-0.823852539,0.527160645,0.0228271484,-0.29296875,0.515625,0.09375,-1.7421875,-8.3828125,-4.2109375,-0.15234375,0.22265625,-0.314453125
585,5769182,6069182,-0.206726074,-0.824707031,0.525817871,0.0259399414,-0.29296875,0.515625,0.09375,-1.7421875,-8.3828125,-4.2109375,-0.169921875,0.6484375,-0.431640625
586,5776918,6076918,-0.20690918,-0.825500488,0.524230957,0.0302124023,0.234375,0.5546875,0.21875,-1.65625,-8.3828125,-4.2578125,-0.169921875,0.6484375,-0.431640625
587,5788806,6088806,-0.207519531,-0.826293945,0.522399902,0.0357666016,0.234375,0.5546875,0.21875,-1.65625,-8.3828125,-4.2578125,-0.154296875,1.20117188,-0.544921875
588,5797424,6097424,-0.208618164,-0.826965332,0.520385742,0.0425415039,0.1484375,0.28515625,0.84765625,-1.4921875,-8.3828125,-4.3125,-0.154296875,1.20117188,-0.544921875
589,5812280,6112280,-0.209899902,-0.827514648,0.518371582,0.0502319336,0.1484375,0.28515625,0.84765625,-1.4921875,-8.3828125,-4.3125,-0.07421875,1.5625,-0.66796875
590,5816779,6116779,-0.21105957,-0.82800293,0.516235352,0.0583496094,-0.9453125,0.1796875,1.0625,-1.28125,-8.390625,-4.375,-0.07421875,1.5625,-0.66796875
591,5829838,6129838,-0.211975098,-0.828674316,0.51361084,0.0673828125,-0.9453125,0.1796875,1.0625,-1.28125,-8.390625,-4.375,-0.17578125,1.62695312,-0.8515625
592,5838329,6138329,-0.212524414,-0.829650879,0.510742188,0.0755615234,-2.2890625,1.2578125,0.3828125,-1.0078125,-8.3984375,-4.421875,-0.17578125,1.62695312,-0.8515625
593,5851605,6151605,-0.21295166,-0.830932617,0.507019043,0.0845947266,-2.2890625,1.2578125,0.3828125,-1.0078125,-8.3984375,-4.421875,-0.388671875,1.5859375,-0.90625
594,5855339,6155339,-0.213439941,-0.83203125,0.503601074,0.0926513672,-2.00390625,0.5546875,0,-0.71875,-8.3828125,-4.5,-0.388671875,1.5859375,-0.90625
595,5871076,6171076,-0.214294434,-0.832885742,0.499938965,0.101928711,-2.00390625,0.5546875,0,-0.71875,-8.3828125,-4.5,-0.265625,1.77734375,-0.857421875
596,5874810,6174810,-0.215332031,-0.833374023,0.496765137,0.111206055,-0.828125,-0.37890625,-0.3125,-0.4375,-8.3671875,-4.5703125,-0.265625,1.77734375,-0.857421875
597,5889112,6189112,-0.21661377,-0.833496094,0.493347168,0.122253418,-0.828125,-0.37890625,-0.3125,-0.4375,-8.3671875,-4.5703125,-0.09765625,2.12695312,-0.962890625
598,5895078,6195078,-0.217895508,-0.833312988,0.489929199,0.134277344,-0.890625,-0.58984375,-0.04296875,-0.109375,-8.3515625,-4.609375,-0.09765625,2.12695312,-0.962890625
599,5911389,6211389,-0.21887207,-0.832946777,0.486877441,0.145629883,-0.890625,-0.58984375,-0.04296875,-0.109375,-8.3515625,-4.609375,0.015625,2.36914062,-1.17382812
600,5919836,6219836,-0.219482422,-0.832580566,0.483215332,0.158447266,-1.3046875,-0.09765625,-0.390625,0.265625,-8.34375,-4.609375,0.015625,2.36914062,-1.17382812
601,5928600,6228600,-0.219848633,-0.832397461,0.479248047,0.170532227,-1.3046875,-0.09765625,-0.390625,0.265625,-8.34375,-4.609375,-0.1640625,2.19140625,-1.23828125
602,5934313,6234313,-0.220092773,-0.832275391,0.474853516,0.182739258,-1.40234375,0.26171875,-0.85546875,0.671875,-8.3203125,-4.6015625,-0.1640625,2.19140625,-1.23828125
603,5947221,6247221,-0.220397949,-0.83215332,0.47052002,0.193725586,-1.40234375,0.26171875,-0.85546875,0.671875,-8.3203125,-4.6015625,-0.25,2.0234375,-1.09765625
604,5954127,6254127,-0.220947266,-0.831848145,0.466308594,0.204467773,-0.03125,0.26171875,-1.30859375,1.0625,-8.28125,-4.609375,-0.25,2.0234375,-1.09765625
605,5967581,6267581,-0.221862793,-0.831054688,0.462280273,0.215515137,-0.03125,0.26171875,-1.30859375,1.0625,-8.28125,-4.609375,-0.107421875,2.23632812,-1.01171875
606,5973295,6273295,-0.223022461,-0.829772949,0.458312988,0.227294922,0.57421875,-0.0546875,-0.91796875,1.4140625,-8.234375,-4.578125,-0.107421875,2.23632812,-1.01171875
607,5987917,6287917,-0.224121094,-0.828186035,0.454406738,0.239624023,0.57421875,-0.0546875,-0.91796875,1.4140625,-8.234375,-4.578125,0.0234375,2.31445312,-1.04492188
608,5997207,6297207,-0.224731445,-0.826538086,0.451171875,0.250610352,-0.390625,-0.32421875,-0.55859375,1.8046875,-8.1953125,-4.515625,0.0234375,2.31445312,-1.04492188
609,6008512,6308512,-0.224731445,-0.824645996,0.448120117,0.262023926,-0.390625,-0.32421875,-0.55859375,1.8046875,-8.1953125,-4.515625,0.19921875,1.92578125,-1.07421875
610,6014238,6314238,-0.224365234,-0.823242188,0.445068359,0.271728516,-0.78125,0.06640625,-0.31640625,2.15625,-8.1640625,-4.4140625,0.19921875,1.92578125,-1.07421875
611,6030900,6330900,-0.223876953,-0.822265625,0.441040039,0.281494141,-0.78125,0.06640625,-0.31640625,2.15625,-8.1640625,-4.4140625,-0.19921875,1.65625,-1.0703125
612,6034638,6334638,-0.223632812,-0.821716309,0.436706543,0.289916992,1.11328125,1.015625,-0.39453125,2.484375,-8.1171875,-4.3359375,-0.19921875,1.65625,-1.0703125
613,6047219,6347219,-0.223937988,-0.821289062,0.432067871,0.297668457,1.11328125,1.015625,-0.39453125,2.484375,-8.1171875,-4.3359375,-0.423828125,1.47265625,-0.796875
614,6053189,6353189,-0.224609375,-0.820617676,0.427856445,0.304992676,1.17578125,-0.37109375,-0.953125,2.765625,-8.03125,-4.3125,-0.423828125,1.47265625,-0.796875
615,6067156,6367156,-0.225341797,-0.819396973,0.424621582,0.312316895,1.17578125,-0.37109375,-0.953125,2.765625,-8.03125,-4.3125,-0.03125,1.48632812,-0.64453125
616,6075203,6375203,-0.225585938,-0.817749023,0.422302246,0.319458008,0.58984375,-1,-0.734375,3.0078125,-7.9765625,-4.265625,-0.03125,1.48632812,-0.64453125
617,6086861,6386861,-0.225219727,-0.816040039,0.420837402,0.32598877,0.58984375,-1,-0.734375,3.0078125,-7.9765625,-4.265625,0.3359375,1.23632812,-0.703125
618,6092824,6392824,-0.223937988,-0.814147949,0.419555664,0.333129883,0.15625,-0.87890625,-0.71875,3.2109375,-7.9453125,-4.1640625,0.3359375,1.23632812,-0.703125
619,6108790,6408790,-0.222106934,-0.812744141,0.418029785,0.33972168,0.15625,-0.87890625,-0.71875,3.2109375,-7.9453125,-4.1640625,0.21484375,1.02929688,-0.962890625
620,6112511,6412511,-0.220031738,-0.811950684,0.415893555,0.34552002,0.8046875,0.69921875,0.11328125,3.4453125,-7.9140625,-4.0390625,0.21484375,1.02929688,-0.962890625
621,6126391,6426391,-0.217834473,-0.811645508,0.412902832,0.351074219,0.8046875,0.69921875,0.11328125,3.4453125,-7.9140625,-4.0390625,-0.158203125,0.7890625,-0.97265625
622,6132370,6432370,-0.216003418,-0.811889648,0.409362793,0.355834961,1.19921875,0.7890625,-0.0625,3.6640625,-7.8515625,-3.9765625,-0.158203125,0.7890625,-0.97265625
623,6148091,6448091,-0.214477539,-0.812194824,0.405639648,0.360168457,1.19921875,0.7890625,-0.0625,3.6640625,-7.8515625,-3.9765625,-0.326171875,0.71484375,-0.859375
624,6157184,6457184,-0.213134766,-0.812438965,0.40234375,0.364257812,1.15625,-0.109375,-0.83984375,3.859375,-7.7578125,-3.96875,-0.326171875,0.71484375,-0.859375
625,6165362,6465362,-0.211730957,-0.812194824,0.399169922,0.36895752,1.15625,-0.109375,-0.83984375,3.859375,-7.7578125,-3.96875,-0.109375,0.87109375,-0.794921875
626,6173101,6473101,-0.210510254,-0.811340332,0.396484375,0.374511719,1.50390625,-1.26953125,-0.1328125,4.046875,-7.671875,-3.9453125,-0.109375,0.87109375,-0.794921875
627,6187530,6487530,-0.209533691,-0.809875488,0.394165039,0.380554199,1.50390625,-1.26953125,-0.1328125,4.046875,-7.671875,-3.9453125,0.103515625,1.1875,-0.771484375
628,6192571,6492571,-0.208557129,-0.808227539,0.391906738,0.386901855,0.98828125,-1.17578125,0.96875,4.2578125,-7.609375,-3.859375,0.103515625,1.1875,-0.771484375
629,6205409,6505409,-0.207458496,-0.80645752,0.389221191,0.393798828,0.98828125,-1.17578125,0.96875,4.2578125,-7.609375,-3.859375,0.029296875,1.28710938,-0.892578125
630,6212908,6512908,-0.206298828,-0.805053711,0.385620117,0.400756836,1.16015625,0.7890625,2.12109375,4.46875,-7.546875,-3.75,0.029296875,1.28710938,-0.892578125
631,6227389,6527389,-0.205200195,-0.804199219,0.381530762,0.406921387,1.16015625,0.7890625,2.12109375,4.46875,-7.546875,-3.75,-0.306640625,1.0546875,-0.9375
632,6235203,6535203,-0.204284668,-0.804016113,0.377319336,0.411682129,1.125,2.0703125,1.4140625,4.6953125,-7.4453125,-3.65625,-0.306640625,1.0546875,-0.9375
633,6247110,6547110,-0.203857422,-0.804504395,0.372192383,0.415588379,1.125,2.0703125,1.4140625,4.6953125,-7.4453125,-3.65625,-0.74609375,0.640625,-0.6875
634,6252138,6552138,-0.204223633,-0.805236816,0.367126465,0.418457031,1.39453125,1.7578125,1.1484375,4.8828125,-7.328125,-3.65625,-0.74609375,0.640625,-0.6875
635,6265877,6565877,-0.20513916,-0.805603027,0.362304688,0.421508789,1.39453125,1.7578125,1.1484375,4.8828125,-7.328125,-3.65625,-0.703125,0.837890625,-0.46875
636,6275056,6575056,-0.206298828,-0.805175781,0.357971191,0.425476074,1.83984375,0.04296875,1.26171875,5.015625,-7.21875,-3.6953125,-0.703125,0.837890625,-0.46875
637,6286644,6586644,-0.207397461,-0.804077148,0.354431152,0.429931641,1.83984375,0.04296875,1.26171875,5.015625,-7.21875,-3.6953125,-0.306640625,1.06640625,-0.416015625
638,6291429,6591429,-0.207885742,-0.80291748,0.35144043,0.434265137,0.28125,-0.6875,1.77734375,5.15625,-7.140625,-3.671875,-0.306640625,1.06640625,-0.416015625
639,6306672,6606672,-0.207763672,-0.802062988,0.349182129,0.437683105,0.28125,-0.6875,1.77734375,5.15625,-7.140625,-3.671875,-0.10546875,0.60546875,-0.42578125
640,6315473,6615473,-0.207214355,-0.801513672,0.347290039,0.440490723,-0.19140625,0.19921875,1.9140625,5.28125,-7.0703125,-3.6171875,-0.10546875,0.60546875,-0.42578125
641,6326031,6626031,-0.206420898,-0.801269531,0.345397949,0.442749023,-0.19140625,0.19921875,1.9140625,5.28125,-7.0703125,-3.6171875,-0.16015625,0.38671875,-0.4453125
642,6332003,6632003,-0.205749512,-0.801208496,0.343200684,0.444824219,0.8671875,0.796875,1.7109375,5.375,-7.015625,-3.5703125,-0.16015625,0.38671875,-0.4453125
643,6346697,6646697,-0.205322266,-0.801330566,0.340637207,0.446777344,0.8671875,0.796875,1.7109375,5.375,-7.015625,-3.5703125,-0.3515625,0.375,-0.421875
644,6351482,6651482,-0.20513916,-0.801574707,0.338012695,0.448425293,1.0390625,0.54296875,1.78125,5.46875,-6.953125,-3.5625,-0.3515625,0.375,-0.421875
645,6365079,6665079,-0.205078125,-0.801940918,0.335388184,0.449890137,1.0390625,0.54296875,1.78125,5.46875,-6.953125,-3.5625,-0.333984375,0.263671875,-0.328125
646,6371214,6671214,-0.204956055,-0.802246094,0.333251953,0.45098877,0.50390625,-0.37109375,1.7890625,5.546875,-6.8828125,-3.5703125,-0.333984375,0.263671875,-0.328125
647,6389533,6689533,-0.204772949,-0.802490234,0.331665039,0.451782227,0.50390625,-0.37109375,1.7890625,5.546875,-6.8828125,-3.5703125,-0.17578125,0.12890625,-0.201171875
648,6398354,6698354,-0.204589844,-0.80267334,0.330627441,0.452331543,0.140625,-0.3046875,1.61328125,5.6015625,-6.8359375,-3.5859375,-0.17578125,0.12890625,-0.201171875
649,6408515,6708515,-0.204284668,-0.80267334,0.330078125,0.452758789,0.140625,-0.3046875,1.61328125,5.6015625,-6.8359375,-3.5859375,0,0.0546875,-0.107421875
650,6412245,6712245,-0.203918457,-0.80267334,0.329956055,0.45300293,0.04296875,-0.546875,1.0390625,5.625,-6.8203125,-3.5859375,0,0.0546875,-0.107421875
651,6427651,6727651,-0.203552246,-0.80267334,0.330078125,0.453186035,0.04296875,-0.546875,1.0390625,5.625,-6.8203125,-3.5859375,0.0625,-0.01171875,-0.037109375
652,6431380,6731380,-0.203369141,-0.802612305,0.33026123,0.453125,0.29296875,-0.2109375,0.953125,5.640625,-6.8125,-3.578125,0.0625,-0.01171875,-0.037109375
653,6446985,6746985,-0.203369141,-0.80267334,0.330505371,0.452941895,0.29296875,-0.2109375,0.953125,5.640625,-6.8125,-3.578125,0.029296875,-0.060546875,0.052734375
654,6450726,6750726,-0.203491211,-0.802856445,0.330749512,0.452392578,0.5625,-0.13671875,1.484375,5.640625,-6.8125,-3.5703125,0.029296875,-0.060546875,0.052734375
655,6466047,6766047,-0.203735352,-0.803344727,0.330810547,0.45135498,0.5625,-0.13671875,1.484375,5.640625,-6.8125,-3.5703125,-0.134765625,-0.232421875,0.11328125
656,6474988,6774988,-0.204223633,-0.804077148,0.330688477,0.449951172,0.69921875,0.515625,1.84375,5.6171875,-6.8125,-3.5859375,-0.134765625,-0.232421875,0.11328125
657,6487428,6787428,-0.205078125,-0.805053711,0.330322266,0.447998047,0.69921875,0.515625,1.84375,5.6171875,-6.8125,-3.5859375,-0.306640625,-0.359375,0.22265625
658,6491173,6791173,-0.206237793,-0.806152344,0.33001709,0.445739746,0.59375,1.12890625,2.05078125,5.5703125,-6.8125,-3.640625,-0.306640625,-0.359375,0.22265625
659,6508120,6808120,-0.207885742,-0.807312012,0.32989502,0.442932129,0.59375,1.12890625,2.05078125,5.5703125,-6.8125,-3.640625,-0.328125,-0.455078125,0.435546875
660,6512687,6812687,-0.209533691,-0.808288574,0.330444336,0.439941406,0.51171875,0.76171875,2.2890625,5.5,-6.828125,-3.7265625,-0.328125,-0.455078125,0.435546875
661,6525387,6825387,-0.211303711,-0.809387207,0.33190918,0.435974121,0.51171875,0.76171875,2.2890625,5.5,-6.828125,-3.7265625,-0.076171875,-0.720703125,0.6484375
662,6533803,6833803,-0.212768555,-0.810424805,0.334106445,0.43157959,0.27734375,-0.2734375,1.6875,5.390625,-6.8671875,-3.8125,-0.076171875,-0.720703125,0.6484375
663,6546247,6846247,-0.214111328,-0.811584473,0.336975098,0.426513672,0.27734375,-0.2734375,1.6875,5.390625,-6.8671875,-3.8125,0.072265625,-1.01953125,0.78125
664,6554478,6854478,-0.215393066,-0.812805176,0.33996582,0.421142578,0.66796875,-0.30859375,1.3515625,5.2265625,-6.9453125,-3.8984375,0.072265625,-1.01953125,0.78125
665,6565921,6865921,-0.21697998,-0.81427002,0.343139648,0.414916992,0.66796875,-0.30859375,1.3515625,5.2265625,-6.9453125,-3.8984375,-0.0234375,-1.15234375,0.88671875
666,6569529,6869529,-0.21875,-0.815795898,0.346008301,0.408508301,1.44140625,0.3984375,1.25390625,5.03125,-7.0390625,-3.9921875,-0.0234375,-1.15234375,0.88671875
667,6583977,6883977,-0.220703125,-0.817749023,0.348999023,0.401000977,1.44140625,0.3984375,1.25390625,5.03125,-7.0390625,-3.9921875,-0.15625,-1.41992188,1.00195312
668,6590874,6890874,-0.222717285,-0.819885254,0.351867676,0.392944336,1.17578125,0.015625,0.09375,4.796875,-7.1171875,-4.1328125,-0.15625,-1.41992188,1.00195312
669,6604774,6904774,-0.225158691,-0.82220459,0.354553223,0.384094238,1.17578125,0.015625,0.09375,4.796875,-7.1171875,-4.1328125,-0.341796875,-1.58789062,1.13671875
670,6613494,6913494,-0.227478027,-0.824462891,0.357299805,0.375366211,0.65234375,-0.93359375,-0.28125,4.515625,-7.203125,-4.296875,-0.341796875,-1.58789062,1.13671875
671,6624894,6924894,-0.229614258,-0.826599121,0.360595703,0.365966797,0.65234375,-0.93359375,-0.28125,4.515625,-7.203125,-4.296875,-0.15234375,-1.765625,1.17578125
672,6633791,6933791,-0.231506348,-0.828674316,0.364318848,0.356262207,0.3046875,-1.78125,-0.796875,4.2109375,-7.2734375,-4.46875,-0.15234375,-1.765625,1.17578125
673,6647006,6947006,-0.232971191,-0.830627441,0.368713379,0.346191406,0.3046875,-1.78125,-0.796875,4.2109375,-7.2734375,-4.46875,0.087890625,-2.0078125,1.2265625
674,6652967,6952967,-0.234008789,-0.832519531,0.373657227,0.335571289,-0.73046875,-0.73046875,-2.2109375,3.8671875,-7.3671875,-4.625,0.087890625,-2.0078125,1.2265625
675,6664632,6964632,-0.234924316,-0.834655762,0.37902832,0.323181152,-0.73046875,-0.73046875,-2.2109375,3.8671875,-7.3671875,-4.625,0.025390625,-2.35742188,1.31445312
676,6670604,6970604,-0.235900879,-0.836853027,0.383972168,0.310913086,-0.40625,-0.0546875,-2.33984375,3.46875,-7.46875,-4.765625,0.025390625,-2.35742188,1.31445312
677,6683933,6983933,-0.236938477,-0.838867188,0.388916016,0.298095703,-0.40625,-0.0546875,-2.33984375,3.46875,-7.46875,-4.765625,0.01171875,-2.43164062,1.39257812
678,6692203,6992203,-0.238098145,-0.840759277,0.393859863,0.285095215,-0.25390625,0.23046875,-2.10546875,3.046875,-7.5625,-4.921875,0.01171875,-2.43164062,1.39257812
679,6705340,7005340,-0.239196777,-0.842590332,0.398986816,0.27142334,-0.25390625,0.23046875,-2.10546875,3.046875,-7.5625,-4.921875,0.029296875,-2.54101562,1.45507812
680,6714619,7014619,-0.24017334,-0.844055176,0.403747559,0.258666992,-0.85546875,0.15625,-1.69921875,2.578125,-7.640625,-5.0625,0.029296875,-2.54101562,1.45507812
681,6727031,7027031,-0.241027832,-0.84552002,0.409179688,0.244018555,-0.85546875,0.15625,-1.69921875,2.578125,-7.640625,-5.0625,0.056640625,-2.6171875,1.44335938
682,6733607,7033607,-0.241455078,-0.846679688,0.414245605,0.230773926,-1.0625,-0.53125,-1.54296875,2.09375,-7.71875,-5.1796875,0.056640625,-2.6171875,1.44335938
683,6743870,7043870,-0.241577148,-0.847595215,0.419677734,0.216918945,-1.0625,-0.53125,-1.54296875,2.09375,-7.71875,-5.1796875,0.169921875,-2.59765625,1.33789062
684,6750614,7050614,-0.241516113,-0.848327637,0.425048828,0.20324707,-0.43359375,-0.35546875,-0.859375,1.6171875,-7.78125,-5.25,0.169921875,-2.59765625,1.33789062
685,6761909,7061909,-0.241210938,-0.848754883,0.430175781,0.190551758,-0.43359375,-0.35546875,-0.859375,1.6171875,-7.78125,-5.25,0.25390625,-2.41992188,1.20117188
686,6772163,7072163,-0.240783691,-0.848999023,0.435241699,0.178344727,-0.23046875,-0.0703125,-0.24609375,1.1484375,-7.8359375,-5.2890625,0.25390625,-2.41992188,1.20117188
687,6783179,7083179,-0.24017334,-0.849060059,0.439819336,0.167236328,-0.23046875,-0.0703125,-0.24609375,1.1484375,-7.8359375,-5.2890625,0.279296875,-2.24414062,1.04882812
688,6791511,7091511,-0.239257812,-0.848999023,0.444702148,0.155456543,-0.41015625,-0.12890625,-0.0859375,0.75,-7.890625,-5.296875,0.279296875,-2.24414062,1.04882812
689,6804938,7104938,-0.238098145,-0.848999023,0.449035645,0.144592285,-0.41015625,-0.12890625,-0.0859375,0.75,-7.890625,-5.296875,0.201171875,-2.13085938,0.853515625
690,6811482,7111482,-0.236877441,-0.849060059,0.452575684,0.13458252,-0.1640625,0.60546875,0.046875,0.3515625,-7.9375,-5.2734375,0.201171875,-2.13085938,0.853515625
691,6821775,7121775,-0.235473633,-0.849121094,0.456054688,0.124572754,-0.1640625,0.60546875,0.046875,0.3515625,-7.9375,-5.2734375,0.1640625,-1.91992188,0.7265625
692,6829326,7129326,-0.234008789,-0.849060059,0.459472656,0.115112305,0.31640625,0.0859375,-0.0078125,0.0234375,-7.953125,-5.2578125,0.1640625,-1.91992188,0.7265625
693,6843749,7143749,-0.232421875,-0.848876953,0.462646484,0.106262207,0.31640625,0.0859375,-0.0078125,0.0234375,-7.953125,-5.2578125,0.169921875,-1.72851562,0.58984375
694,6849084,7149084,-0.230895996,-0.848693848,0.465576172,0.0981445312,0.546875,0.5234375,-0.1171875,-0.28125,-7.96875,-5.2265625,0.169921875,-1.72851562,0.58984375
695,6863923,7163923,-0.229431152,-0.848388672,0.468444824,0.0903930664,0.546875,0.5234375,-0.1171875,-0.28125,-7.96875,-5.2265625,0.166015625,-1.46484375,0.51953125
696,6872764,7172764,-0.228271484,-0.848083496,0.470703125,0.083984375,1.1015625,0.65234375,0.03515625,-0.53125,-7.984375,-5.1875,0.166015625,-1.46484375,0.51953125
697,6883666,7183666,-0.227111816,-0.84777832,0.472900391,0.0776367188,1.1015625,0.65234375,0.03515625,-0.53125,-7.984375,-5.1875,0.099609375,-1.16601562,0.41796875
698,6889212,7189212,-0.226135254,-0.847595215,0.474609375,0.0720214844,1.11328125,0.5078125,0.3046875,-0.734375,-7.9921875,-5.1484375,0.099609375,-1.16601562,0.41796875
699,6903321,7203321,-0.225158691,-0.847473145,0.475952148,0.0671386719,1.11328125,0.5078125,0.3046875,-0.734375,-7.9921875,-5.1484375,0.009765625,-0.94921875,0.318359375
700,6908366,7208366,-0.224243164,-0.847412109,0.477172852,0.0626831055,0.7421875,0.0859375,0.203125,-0.8984375,-7.9921875,-5.125,0.009765625,-0.94921875,0.318359375
701,6923198,7223198,-0.223388672,-0.847290039,0.478271484,0.0588989258,0.7421875,0.0859375,0.203125,-0.8984375,-7.9921875,-5.125,0.046875,-0.7265625,0.21484375
702,6929215,7229215,-0.22253418,-0.847229004,0.479187012,0.0556640625,0.484375,0.0859375,0.29296875,-1.0234375,-7.9921875,-5.1015625,0.046875,-0.7265625,0.21484375
703,6942962,7242962,-0.221679688,-0.847229004,0.479858398,0.0528564453,0.484375,0.0859375,0.29296875,-1.0234375,-7.9921875,-5.1015625,-0.017578125,-0.56640625,0.12109375
704,6951930,7251930,-0.220825195,-0.847290039,0.48046875,0.0503540039,-0.12109375,-0.1796875,0.1640625,-1.109375,-7.9921875,-5.0859375,-0.017578125,-0.56640625,0.12109375
705,6963584,7263584,-0.219970703,-0.847229004,0.481140137,0.0483398438,-0.12109375,-0.1796875,0.1640625,-1.109375,-7.9921875,-5.0859375,0.07421875,-0.439453125,0.033203125
706,6969215,7269215,-0.21887207,-0.847106934,0.481994629,0.0468139648,-0.203125,-0.6796875,0.15625,-1.1796875,-7.9921875,-5.078125,0.07421875,-0.439453125,0.033203125
707,6984262,7284262,-0.217529297,-0.846984863,0.482910156,0.0456542969,-0.203125,-0.6796875,0.15625,-1.1796875,-7.9921875,-5.078125,0.119140625,-0.341796875,-0.09765625
708,6988600,7288600,-0.216308594,-0.846862793,0.483703613,0.044921875,-0.25390625,-0.40234375,0.4296875,-1.203125,-8,-5.046875,0.119140625,-0.341796875,-0.09765625
709,7003425,7303425,-0.215087891,-0.846801758,0.484436035,0.0446166992,-0.25390625,-0.40234375,0.4296875,-1.203125,-8,-5.046875,0.123046875,-0.15234375,-0.171875
710,7009087,7309087,-0.213989258,-0.846740723,0.485046387,0.0446166992,-0.6015625,-0.12109375,0.36328125,-1.203125,-8.015625,-5.015625,0.123046875,-0.15234375,-0.171875
711,7023061,7323061,-0.21295166,-0.846557617,0.485717773,0.0447998047,-0.6015625,-0.12109375,0.36328125,-1.203125,-8.015625,-5.015625,0.140625,-0.09765625,-0.18359375
712,7031497,7331497,-0.211975098,-0.846496582,0.486328125,0.0449829102,-1.6484375,0.01953125,0.15625,-1.1875,-8.0390625,-5,0.140625,-0.09765625,-0.18359375
713,7043932,7343932,-0.2109375,-0.846374512,0.486938477,0.0452270508,-1.6484375,0.01953125,0.15625,-1.1875,-8.0390625,-5,0.130859375,-0.083984375,-0.1796875
714,7051234,7351234,-0.209960938,-0.846252441,0.487487793,0.0455322266,-1.94140625,0.1875,0.140625,-1.1640625,-8.0546875,-4.984375,0.130859375,-0.083984375,-0.1796875
715,7063927,7363927,-0.20892334,-0.846130371,0.48815918,0.0458374023,-1.94140625,0.1875,0.140625,-1.1640625,-8.0546875,-4.984375,0.150390625,-0.072265625,-0.1953125
716,7067531,7367531,-0.207763672,-0.846008301,0.488830566,0.0462036133,-2.2265625,-0.09375,0.26171875,-1.1484375,-8.078125,-4.953125,0.150390625,-0.072265625,-0.1953125
717,7086556,7386556,-0.206298828,-0.84588623,0.489624023,0.0465698242,-2.2265625,-0.09375,0.26171875,-1.1484375,-8.078125,-4.953125,0.166015625,-0.119140625,-0.28515625
718,7091323,7391323,-0.204711914,-0.845825195,0.490356445,0.0469970703,-2.296875,0.03515625,0.4296875,-1.1171875,-8.09375,-4.9296875,0.166015625,-0.119140625,-0.28515625
719,7102590,7402590,-0.202819824,-0.84576416,0.491210938,0.0476074219,-2.296875,0.03515625,0.4296875,-1.1171875,-8.09375,-4.9296875,0.203125,-0.103515625,-0.35546875
720,7116056,7416056,-0.20111084,-0.84564209,0.492004395,0.0484008789,-2.14453125,0.21875,0.16796875,-1.078125,-8.125,-4.8984375,0.203125,-0.103515625,-0.35546875
721,7120666,7420666,-0.19921875,-0.845581055,0.492797852,0.049621582,-2.14453125,0.21875,0.16796875,-1.078125,-8.125,-4.8984375,0.193359375,0.021484375,-0.4140625
722,7131613,7431613,-0.197631836,-0.84552002,0.493408203,0.0510253906,-2.20703125,0.6953125,0.28125,-1.015625,-8.140625,-4.859375,0.193359375,0.021484375,-0.4140625
723,7142941,7442941,-0.195922852,-0.845458984,0.494018555,0.0527954102,-2.20703125,0.6953125,0.28125,-1.015625,-8.140625,-4.859375,0.173828125,0.13671875,-0.4375
724,7146670,7446670,-0.194458008,-0.845458984,0.494384766,0.0546875,-2.34375,1.109375,0.2890625,-0.953125,-8.171875,-4.828125,0.173828125,0.13671875,-0.4375
725,7161501,7461501,-0.192932129,-0.845581055,0.494506836,0.0568237305,-2.34375,1.109375,0.2890625,-0.953125,-8.171875,-4.828125,0.080078125,0.220703125,-0.455078125
726,7167209,7467209,-0.191589355,-0.845825195,0.49432373,0.0590820312,-2.36328125,1.32421875,0.3046875,-0.859375,-8.1953125,-4.8046875,0.080078125,0.220703125,-0.455078125
727,7182798,7482798,-0.190368652,-0.846191406,0.493896484,0.0615844727,-2.36328125,1.32421875,0.3046875,-0.859375,-8.1953125,-4.8046875,-0.037109375,0.3515625,-0.4609375
728,7191598,7491598,-0.189453125,-0.846679688,0.493103027,0.0642089844,-2.0703125,1.484375,0.04296875,-0.765625,-8.203125,-4.8125,-0.037109375,0.3515625,-0.4609375
729,7206205,7506205,-0.188598633,-0.847290039,0.491882324,0.0675048828,-2.0703125,1.484375,0.04296875,-0.765625,-8.203125,-4.8125,-0.158203125,0.5546875,-0.494140625
730,7210346,7510346,-0.188049316,-0.847961426,0.49041748,0.0712280273,-1.38671875,1.5234375,0.10546875,-0.6484375,-8.203125,-4.8359375,-0.158203125,0.5546875,-0.494140625
