sample_index,offset_us,timestamp_us,quat_i,quat_j,quat_k,quat_real,linear_accel_x_mps2,linear_accel_y_mps2,linear_accel_z_mps2,gravity_x_mps2,gravity_y_mps2,gravity_z_mps2,gyro_x_radps,gyro_y_radps,gyro_z_radps
0,31245,331245,0.561401367,-0.141662598,-0.670532227,0.463806152,0.72265625,-2.33203125,-3.04296875,-7.9921875,5.4609375,1.6484375,0.044921875,-2.66601562,2.25390625
1,31293,331293,0.550598145,-0.155090332,-0.672607422,0.469421387,0.78125,-1.4453125,-1.94140625,-6.09375,6.9140625,3.1875,0.044921875,-2.66601562,2.25390625
2,31326,331326,0.540161133,-0.168762207,-0.674133301,0.47467041,0.78125,-1.4453125,-1.94140625,-6.09375,6.9140625,3.1875,0.32421875,-2.65820312,2.41015625
3,31373,331373,0.530822754,-0.181945801,-0.675048828,0.479003906,2.01953125,-1.64453125,-3.29296875,-5.5703125,7.1875,3.46875,0.32421875,-2.65820312,2.41015625
4,31405,331405,0.52166748,-0.195861816,-0.675476074,0.482910156,2.01953125,-1.64453125,-3.29296875,-5.5703125,7.1875,3.46875,0.615234375,-2.31054688,2.14453125
5,31453,331453,0.513305664,-0.209228516,-0.675598145,0.48614502,2.66015625,-1.21875,-2.4375,-5.0625,7.453125,3.6484375,0.615234375,-2.31054688,2.14453125
6,31485,331485,0.505004883,-0.222351074,-0.675415039,0.489257812,2.66015625,-1.21875,-2.4375,-5.0625,7.453125,3.6484375,0.625,-2.265625,2.16015625
7,43947,343947,0.360229492,-0.407165527,-0.65447998,0.52545166,2.66015625,-1.21875,-2.4375,-4.5703125,7.6953125,3.75,0.97265625,-2.16210938,2.29492188
8,50491,350491,0.351135254,-0.420776367,-0.649841309,0.526611328,2.41015625,-0.328125,0.69140625,-0.5234375,8.78125,3.890625,0.97265625,-2.16210938,2.29492188
9,64311,364311,0.342895508,-0.434692383,-0.644470215,0.52734375,2.41015625,-0.328125,0.69140625,-0.5234375,8.78125,3.890625,1.46484375,-2.08789062,2.34570312
10,69767,369767,0.335693359,-0.448669434,-0.638549805,0.527526855,2.3984375,-1.00390625,-0.79296875,0.0625,8.8828125,3.6875,1.46484375,-2.08789062,2.34570312
11,84137,384137,0.328552246,-0.463867188,-0.631530762,0.527282715,2.3984375,-1.00390625,-0.79296875,0.0625,8.8828125,3.6875,1.8125,-1.93554688,2.26757812
12,90092,390092,0.321899414,-0.477966309,-0.624633789,0.526977539,2.765625,0.16796875,-0.5859375,0.6171875,8.9765625,3.3671875,1.8125,-1.93554688,2.26757812
13,103696,403696,0.314331055,-0.491516113,-0.618041992,0.526977539,2.765625,0.16796875,-0.5859375,0.6171875,8.9765625,3.3671875,1.32617188,-1.96484375,2.30664062
14,112915,412915,0.305664062,-0.503112793,-0.612609863,0.527404785,3,2.14453125,1.85546875,1.1484375,9.03125,3.03125,1.32617188,-1.96484375,2.30664062
15,124064,424064,0.294250488,-0.514343262,-0.607910156,0.528503418,3,2.14453125,1.85546875,1.1484375,9.03125,3.03125,0.333984375,-2.20117188,2.44140625
16,131569,431569,0.28112793,-0.524658203,-0.604064941,0.529907227,2.8359375,4.234375,3.8984375,1.6953125,9.0078125,2.828125,0.333984375,-2.20117188,2.44140625
17,143411,443411,0.26739502,-0.534057617,-0.600646973,0.531494141,2.8359375,4.234375,3.8984375,1.6953125,9.0078125,2.828125,-0.1171875,-2.34179688,2.58398438
18,149774,449774,0.25390625,-0.543151855,-0.597045898,0.532958984,2.78515625,2.30859375,2.24609375,2.28125,8.90625,2.71875,-0.1171875,-2.34179688,2.58398438
19,164890,464890,0.240722656,-0.553283691,-0.592224121,0.534057617,2.78515625,2.30859375,2.24609375,2.28125,8.90625,2.71875,0.46875,-2.15039062,2.48046875
20,170330,470330,0.230102539,-0.563720703,-0.586181641,0.534484863,3.2421875,-0.25,-1.0625,2.859375,8.78125,2.578125,0.46875,-2.15039062,2.48046875
21,182648,482648,0.222167969,-0.574523926,-0.578796387,0.534362793,3.2421875,-0.25,-1.0625,2.859375,8.78125,2.578125,1.50390625,-1.60546875,2.04492188
22,192337,492337,0.21697998,-0.584899902,-0.570678711,0.533935547,3.28515625,-0.1875,-1.546875,3.3515625,8.6796875,2.296875,1.50390625,-1.60546875,2.04492188
23,204070,504070,0.213500977,-0.595275879,-0.561584473,0.533569336,3.28515625,-0.1875,-1.546875,3.3515625,8.6796875,2.296875,1.87890625,-0.96484375,1.67382812
24,211678,511678,0.210998535,-0.604614258,-0.55255127,0.533508301,2.6796875,1.66796875,0.7265625,3.7265625,8.625,1.8984375,1.87890625,-0.96484375,1.67382812
25,223458,523458,0.208312988,-0.61328125,-0.543823242,0.533630371,2.6796875,1.66796875,0.7265625,3.7265625,8.625,1.8984375,1.58789062,-0.84765625,1.6328125
26,230174,530174,0.20489502,-0.620727539,-0.536376953,0.533874512,1.59375,2.97265625,2.29296875,4.046875,8.546875,1.5234375,1.58789062,-0.84765625,1.6328125
27,244527,544527,0.199951172,-0.627990723,-0.529174805,0.534423828,1.59375,2.97265625,2.29296875,4.046875,8.546875,1.5234375,0.875,-0.87890625,1.65429688
28,249916,549916,0.194519043,-0.633850098,-0.5234375,0.53515625,0.78515625,3.5703125,1.84375,4.359375,8.4453125,1.2421875,0.875,-0.87890625,1.65429688
29,263366,563366,0.188537598,-0.639038086,-0.518676758,0.535827637,0.78515625,3.5703125,1.84375,4.359375,8.4453125,1.2421875,0.3828125,-0.92578125,1.515625
30,269742,569742,0.182678223,-0.643493652,-0.514709473,0.536315918,0.11328125,2.86328125,1.15234375,4.6484375,8.3125,1.0546875,0.3828125,-0.92578125,1.515625
31,289302,589302,0.177185059,-0.647521973,-0.511108398,0.536804199,0.11328125,2.86328125,1.15234375,4.6484375,8.3125,1.0546875,0.25,-0.759765625,1.21289062
32,307555,607555,0.172424316,-0.650939941,-0.50793457,0.537109375,-0.13671875,1.640625,0.35546875,4.8984375,8.1953125,0.9296875,0.25,-0.759765625,1.21289062
33,307588,607588,0.168579102,-0.653930664,-0.505126953,0.537414551,-0.13671875,1.640625,0.35546875,4.8984375,8.1953125,0.9296875,0.23828125,-0.494140625,0.81640625
34,310606,610606,0.16583252,-0.656311035,-0.502746582,0.537597656,-0.2421875,1.6640625,0.54296875,5.078125,8.09375,0.8203125,0.23828125,-0.494140625,0.81640625
35,324401,624401,0.163879395,-0.658447266,-0.500610352,0.537597656,-0.2421875,1.6640625,0.54296875,5.078125,8.09375,0.8203125,0.30859375,-0.3046875,0.48828125
36,330211,630211,0.162719727,-0.660400391,-0.498474121,0.537475586,-0.12109375,1.44921875,0.23828125,5.1875,8.0390625,0.7421875,0.30859375,-0.3046875,0.48828125
37,343327,643327,0.162231445,-0.661987305,-0.496643066,0.537353516,-0.12109375,1.44921875,0.23828125,5.1875,8.0390625,0.7421875,0.35546875,-0.12890625,0.25390625
38,350263,650263,0.162231445,-0.663208008,-0.495117188,0.53729248,0.23046875,1.55859375,0.23828125,5.2578125,8.0078125,0.6640625,0.35546875,-0.12890625,0.25390625
39,363935,663935,0.162475586,-0.664245605,-0.493713379,0.537231445,0.23046875,1.55859375,0.23828125,5.2578125,8.0078125,0.6640625,0.29296875,-0.025390625,0.1171875
40,377695,677695,0.162841797,-0.665100098,-0.492553711,0.53717041,0.390625,2.03515625,0.4921875,5.2890625,7.9921875,0.6015625,0.29296875,-0.025390625,0.1171875
41,385914,685914,0.163208008,-0.665710449,-0.491577148,0.53717041,0.390625,2.03515625,0.4921875,5.2890625,7.9921875,0.6015625,0.201171875,0.001953125,0.056640625
42,390031,690031,0.163574219,-0.666137695,-0.490905762,0.537109375,0.21484375,1.8046875,0.609375,5.3125,7.9921875,0.5625,0.201171875,0.001953125,0.056640625
43,404358,704358,0.1640625,-0.666381836,-0.49041748,0.537109375,0.21484375,1.8046875,0.609375,5.3125,7.9921875,0.5625,0.13671875,0.044921875,-0.01953125
44,410172,710172,0.164855957,-0.666625977,-0.489929199,0.53704834,0.21484375,1.19140625,0.32421875,5.3125,7.9921875,0.5390625,0.13671875,0.044921875,-0.01953125
45,424625,724625,0.166015625,-0.666870117,-0.489318848,0.536987305,0.21484375,1.19140625,0.32421875,5.3125,7.9921875,0.5390625,0.25390625,0.1171875,-0.107421875
46,430571,730571,0.167541504,-0.666992188,-0.488647461,0.536865234,-0.015625,1.17578125,0.03515625,5.3125,8.0078125,0.5234375,0.25390625,0.1171875,-0.107421875
47,445261,745261,0.169311523,-0.667053223,-0.48815918,0.536743164,-0.015625,1.17578125,0.03515625,5.3125,8.0078125,0.5234375,0.259765625,0.177734375,-0.216796875
48,453263,753263,0.171142578,-0.666931152,-0.487854004,0.536560059,-0.51953125,1.45703125,0.05859375,5.28125,8.03125,0.5,0.259765625,0.177734375,-0.216796875
49,463895,763895,0.173156738,-0.666687012,-0.487854004,0.536254883,-0.51953125,1.45703125,0.05859375,5.28125,8.03125,0.5,0.18359375,0.177734375,-0.326171875
50,470355,770355,0.175170898,-0.666320801,-0.488037109,0.535888672,-0.328125,1.2734375,-0.03125,5.2421875,8.0625,0.4765625,0.18359375,0.177734375,-0.326171875
51,484587,784587,0.177734375,-0.665893555,-0.488220215,0.535461426,-0.328125,1.2734375,-0.03125,5.2421875,8.0625,0.4765625,0.23046875,0.2421875,-0.419921875
52,494474,794474,0.180541992,-0.665405273,-0.48828125,0.53503418,0.1875,1.265625,-0.0625,5.1875,8.109375,0.46875,0.23046875,0.2421875,-0.419921875
53,504831,804831,0.183532715,-0.664855957,-0.48840332,0.534545898,0.1875,1.265625,-0.0625,5.1875,8.109375,0.46875,0.26953125,0.29296875,-0.484375
54,512649,812649,0.186645508,-0.66418457,-0.488647461,0.534057617,-0.1171875,1.43359375,-0.125,5.109375,8.171875,0.453125,0.26953125,0.29296875,-0.484375
55,525102,825102,0.189819336,-0.663208008,-0.489379883,0.533508301,-0.1171875,1.43359375,-0.125,5.109375,8.171875,0.453125,0.12109375,0.3359375,-0.626953125
56,533284,833284,0.193115234,-0.661804199,-0.490600586,0.532897949,-0.1015625,1.453125,0.2578125,5.015625,8.2265625,0.453125,0.12109375,0.3359375,-0.626953125
57,545314,845314,0.196533203,-0.66003418,-0.49230957,0.532287598,-0.1015625,1.453125,0.2578125,5.015625,8.2265625,0.453125,-0.05078125,0.380859375,-0.810546875
58,551512,851512,0.200134277,-0.657958984,-0.494445801,0.531555176,0.09375,1.453125,0.34375,4.8984375,8.3046875,0.484375,-0.05078125,0.380859375,-0.810546875
59,565317,865317,0.204223633,-0.655395508,-0.496887207,0.530944824,0.09375,1.453125,0.34375,4.8984375,8.3046875,0.484375,-0.111328125,0.5390625,-0.9921875
60,574283,874283,0.20892334,-0.652526855,-0.499267578,0.530334473,0.66015625,1.015625,0.31640625,4.75,8.3984375,0.546875,-0.111328125,0.5390625,-0.9921875
61,588893,888893,0.214538574,-0.649475098,-0.501525879,0.529785156,0.66015625,1.015625,0.31640625,4.75,8.3984375,0.546875,0.072265625,0.775390625,-1.21484375
62,591885,891885,0.221191406,-0.646118164,-0.503601074,0.52911377,0.78125,0.17578125,0.5625,4.5546875,8.5078125,0.609375,0.072265625,0.775390625,-1.21484375
63,605160,905160,0.228759766,-0.642333984,-0.505737305,0.528503418,0.78125,0.17578125,0.5625,4.5546875,8.5078125,0.609375,0.169921875,1.05273438,-1.515625
64,614301,914301,0.236633301,-0.638061523,-0.508239746,0.527832031,1.26171875,0.3515625,0.61328125,4.3046875,8.640625,0.671875,0.169921875,1.05273438,-1.515625
65,624737,924737,0.245544434,-0.632507324,-0.51159668,0.52722168,1.26171875,0.3515625,0.61328125,4.3046875,8.640625,0.671875,-0.123046875,1.26367188,-1.8515625
66,631490,931490,0.254455566,-0.625976562,-0.515808105,0.526672363,1.48046875,1.16015625,0.90234375,4.0078125,8.7890625,0.765625,-0.123046875,1.26367188,-1.8515625
67,644466,944466,0.263183594,-0.618469238,-0.520751953,0.526306152,1.48046875,1.16015625,0.90234375,4.0078125,8.7890625,0.765625,-0.568359375,1.39648438,-2.03125
68,652471,952471,0.270874023,-0.610534668,-0.526245117,0.526245117,2.046875,2.0546875,1.6953125,3.6328125,8.9296875,0.9296875,-0.568359375,1.39648438,-2.03125
69,663878,963878,0.278320312,-0.600830078,-0.533203125,0.526489258,2.046875,2.0546875,1.6953125,3.6328125,8.9296875,0.9296875,-1.26757812,1.43554688,-2.13085938
70,671461,971461,0.28515625,-0.589599609,-0.541625977,0.526977539,2.140625,2.91796875,2.3984375,3.234375,9.0625,1.1875,-1.26757812,1.43554688,-2.13085938
71,684946,984946,0.290893555,-0.578186035,-0.550170898,0.527648926,2.140625,2.91796875,2.3984375,3.234375,9.0625,1.1875,-1.80859375,1.453125,-2.21875
72,692865,992865,0.296508789,-0.566162109,-0.558898926,0.528381348,2.76953125,2.078125,1.546875,2.796875,9.171875,1.578125,-1.80859375,1.453125,-2.21875
73,704954,1004954,0.302612305,-0.553649902,-0.567443848,0.52911377,2.76953125,2.078125,1.546875,2.796875,9.171875,1.578125,-1.65039062,1.58984375,-2.19726562
74,711150,1011150,0.309265137,-0.541809082,-0.574707031,0.529663086,3.18359375,0.109375,0,2.34375,9.2265625,1.9765625,-1.65039062,1.58984375,-2.19726562
75,724139,1024139,0.316955566,-0.530151367,-0.580871582,0.530151367,3.18359375,0.109375,0,2.34375,9.2265625,1.9765625,-1.07226562,1.81835938,-2.10546875
76,735199,1035199,0.324890137,-0.51965332,-0.585693359,0.530456543,2.42578125,-0.34375,-0.21484375,1.875,9.2578125,2.3046875,-1.07226562,1.81835938,-2.10546875
77,744700,1044700,0.333740234,-0.508789062,-0.590148926,0.530517578,2.42578125,-0.34375,-0.21484375,1.875,9.2578125,2.3046875,-0.72265625,1.83789062,-2.00195312
78,751460,1051460,0.342346191,-0.498352051,-0.594238281,0.530395508,1.1640625,0.5,0.82421875,1.4140625,9.296875,2.53125,-0.72265625,1.83789062,-2.00195312
79,762898,1062898,0.350585938,-0.488342285,-0.598083496,0.530029297,1.1640625,0.5,0.82421875,1.4140625,9.296875,2.53125,-0.681640625,1.73632812,-1.99414062
80,775193,1075193,0.358642578,-0.478088379,-0.602111816,0.529418945,0.62890625,0.62890625,1.06640625,0.953125,9.3203125,2.7109375,-0.681640625,1.73632812,-1.99414062
81,784656,1084656,0.366210938,-0.467712402,-0.606384277,0.528625488,0.62890625,0.62890625,1.06640625,0.953125,9.3203125,2.7109375,-0.84765625,1.56835938,-1.98046875
82,790864,1090864,0.37298584,-0.457214355,-0.610839844,0.527893066,0.63671875,1.515625,1.0546875,0.484375,9.3125,2.875,-0.84765625,1.56835938,-1.98046875
83,803342,1103342,0.379089355,-0.446594238,-0.615539551,0.52722168,0.63671875,1.515625,1.0546875,0.484375,9.3125,2.875,-1.09765625,1.44140625,-1.91796875
84,813483,1113483,0.38458252,-0.435913086,-0.620178223,0.526733398,1.00390625,1.671875,1.05078125,0.0390625,9.2734375,3.0703125,-1.09765625,1.44140625,-1.91796875
85,824177,1124177,0.390380859,-0.424438477,-0.624938965,0.526245117,1.00390625,1.671875,1.05078125,0.0390625,9.2734375,3.0703125,-1.16015625,1.51171875,-1.91015625
86,831066,1131066,0.396606445,-0.412841797,-0.629333496,0.52557373,1.25,0.66796875,0.6015625,-0.3984375,9.203125,3.2890625,-1.16015625,1.51171875,-1.91015625
87,843070,1143070,0.403381348,-0.401489258,-0.633056641,0.524719238,1.25,0.66796875,0.6015625,-0.3984375,9.203125,3.2890625,-0.90625,1.75,-1.99804688
88,855887,1155887,0.410888672,-0.390075684,-0.636291504,0.52355957,1.26171875,0.6015625,0.46875,-0.8671875,9.1171875,3.4609375,-0.90625,1.75,-1.99804688
89,864751,1164751,0.419067383,-0.378723145,-0.639038086,0.522094727,1.26171875,0.6015625,0.46875,-0.8671875,9.1171875,3.4609375,-0.607421875,1.90625,-2.04492188
90,871076,1171076,0.42755127,-0.367492676,-0.641418457,0.520324707,0.71875,0.65625,0.20703125,-1.359375,9.0234375,3.5703125,-0.607421875,1.90625,-2.04492188
91,882540,1182540,0.436096191,-0.356262207,-0.643554688,0.518371582,0.71875,0.65625,0.20703125,-1.359375,9.0234375,3.5703125,-0.51953125,1.95703125,-2.10351562
92,893863,1193863,0.444641113,-0.344970703,-0.645751953,0.516052246,0.16015625,1.05859375,0.80859375,-1.875,8.9296875,3.6171875,-0.51953125,1.95703125,-2.10351562
93,903451,1203451,0.452453613,-0.334106445,-0.647949219,0.51361084,0.16015625,1.05859375,0.80859375,-1.875,8.9296875,3.6171875,-0.572265625,1.79296875,-2.13476562
94,912495,1212495,0.460327148,-0.322570801,-0.650390625,0.510925293,-0.03515625,0.72265625,0.48046875,-2.3671875,8.8046875,3.640625,-0.572265625,1.79296875,-2.13476562
95,925103,1225103,0.468017578,-0.310852051,-0.652770996,0.508178711,-0.03515625,0.72265625,0.48046875,-2.3671875,8.8046875,3.640625,-0.65625,1.78125,-2.1875
96,933253,1233253,0.475585938,-0.298461914,-0.655334473,0.505249023,0.12890625,1.1015625,0.88671875,-2.875,8.65625,3.65625,-0.65625,1.78125,-2.1875
97,945199,1245199,0.482116699,-0.286743164,-0.657714844,0.502746582,0.12890625,1.1015625,0.88671875,-2.875,8.65625,3.65625,-0.84765625,1.7421875,-2.171875
98,950824,1250824,0.489135742,-0.273803711,-0.66015625,0.499938965,0.75,0.62890625,0.9765625,-3.3828125,8.4765625,3.6796875,-0.84765625,1.7421875,-2.171875
99,964330,1264330,0.49609375,-0.261230469,-0.66217041,0.497131348,0.75,0.62890625,0.9765625,-3.3828125,8.4765625,3.6796875,-0.75390625,1.85351562,-2.17578125
100,973863,1273863,0.503479004,-0.248779297,-0.663696289,0.49407959,1.36328125,0.57421875,1.078125,-3.8828125,8.265625,3.6953125,-0.75390625,1.85351562,-2.17578125
101,983456,1283456,0.510986328,-0.237182617,-0.664611816,0.490844727,1.36328125,0.57421875,1.078125,-3.8828125,8.265625,3.6953125,-0.427734375,2.01953125,-2.13085938
102,992519,1292519,0.519470215,-0.225585938,-0.664855957,0.487060547,1.47265625,-0.51171875,0.05078125,-4.375,8.046875,3.6484375,-0.427734375,2.01953125,-2.13085938
103,1003859,1303859,0.528869629,-0.213562012,-0.664611816,0.482666016,1.47265625,-0.51171875,0.05078125,-4.375,8.046875,3.6484375,-0.16796875,2.24609375,-2.23046875
104,1011474,1311474,0.538452148,-0.20098877,-0.664245605,0.477905273,1.31640625,0.6171875,1.43359375,-4.8671875,7.8359375,3.4921875,-0.16796875,2.24609375,-2.23046875
105,1024214,1324214,0.547180176,-0.188293457,-0.6640625,0.473449707,1.31640625,0.6171875,1.43359375,-4.8671875,7.8359375,3.4921875,-0.462890625,2.25195312,-2.3515625
106,1030975,1330975,0.555603027,-0.174621582,-0.663879395,0.469116211,1.640625,1.328125,1.64453125,-5.3828125,7.5859375,3.3203125,-0.462890625,2.25195312,-2.3515625
107,1043995,1343995,0.563964844,-0.160522461,-0.663452148,0.46484375,1.640625,1.328125,1.64453125,-5.3828125,7.5859375,3.3203125,-0.57421875,2.35351562,-2.3671875
108,1053872,1353872,0.572387695,-0.146850586,-0.662475586,0.460327148,1.765625,0.5546875,1.36328125,-5.890625,7.2890625,3.140625,-0.57421875,2.35351562,-2.3671875
109,1064184,1364184,0.581481934,-0.133605957,-0.660888672,0.455200195,1.765625,0.5546875,1.36328125,-5.890625,7.2890625,3.140625,-0.1640625,2.47070312,-2.265625
110,1073227,1373227,0.590637207,-0.121704102,-0.658813477,0.449829102,1.8203125,-0.7578125,-0.37109375,-6.3671875,6.9921875,2.921875,-0.1640625,2.47070312,-2.265625
111,1083977,1383977,0.600830078,-0.109436035,-0.656005859,0.44354248,1.8203125,-0.7578125,-0.37109375,-6.3671875,6.9921875,2.921875,0.169921875,2.609375,-2.2421875
112,1093878,1393878,0.611022949,-0.0971679688,-0.652893066,0.436950684,2.1015625,-0.5859375,-0.38671875,-6.8046875,6.703125,2.59375,0.169921875,2.609375,-2.2421875
113,1103231,1403231,0.620483398,-0.0858154297,-0.649780273,0.430664062,2.1015625,-0.5859375,-0.38671875,-6.8046875,6.703125,2.59375,0.189453125,2.48632812,-2.10742188
114,1110561,1410561,0.629516602,-0.0750732422,-0.646484375,0.424377441,2.5625,-1.40625,-1.7734375,-7.2265625,6.4140625,2.21875,0.189453125,2.48632812,-2.10742188
115,1123079,1423079,0.638977051,-0.0642089844,-0.64276123,0.417602539,2.5625,-1.40625,-1.7734375,-7.2265625,6.4140625,2.21875,0.357421875,2.4296875,-2.00390625
116,1133193,1433193,0.647705078,-0.0543823242,-0.639282227,0.410949707,2.2265625,-2.3828125,-2.06640625,-7.578125,6.125,1.8203125,0.357421875,2.4296875,-2.00390625
117,1143099,1443099,0.65625,-0.0444946289,-0.635681152,0.403991699,2.2265625,-2.3828125,-2.06640625,-7.578125,6.125,1.8203125,0.36328125,2.1796875,-1.90234375
118,1153355,1453355,0.663879395,-0.0353393555,-0.632446289,0.397521973,2.078125,-2.0625,-1.8203125,-7.890625,5.84375,1.421875,0.36328125,2.1796875,-1.90234375
119,1163044,1463044,0.670898438,-0.0264282227,-0.629394531,0.391174316,2.078125,-2.0625,-1.8203125,-7.890625,5.84375,1.421875,0.28515625,1.87109375,-1.74023438
120,1175872,1475872,0.677368164,-0.0178833008,-0.626647949,0.38494873,2.25,-2.1953125,-2.42578125,-8.140625,5.5546875,1.0703125,0.28515625,1.87109375,-1.74023438
121,1183854,1483854,0.682983398,-0.010559082,-0.624145508,0.379211426,2.25,-2.1953125,-2.42578125,-8.140625,5.5546875,1.0703125,0.3359375,1.5078125,-1.47265625
122,1190666,1490666,0.687927246,-0.00451660156,-0.621948242,0.374023438,2.76953125,-3.34765625,-3.9140625,-8.3515625,5.2890625,0.7578125,0.3359375,1.5078125,-1.47265625
123,1203224,1503224,0.692993164,0.000793457031,-0.619567871,0.368591309,2.76953125,-3.34765625,-3.9140625,-8.3515625,5.2890625,0.7578125,0.51171875,1.25,-1.10351562
124,1212862,1512862,0.697387695,0.00463867188,-0.617492676,0.363769531,2.91796875,-4.75390625,-4.1796875,-8.5,5.0859375,0.484375,0.51171875,1.25,-1.10351562
125,1223880,1523880,0.70135498,0.00769042969,-0.615539551,0.359313965,2.91796875,-4.75390625,-4.1796875,-8.5,5.0859375,0.484375,0.49609375,0.86328125,-0.69921875
126,1231348,1531348,0.704345703,0.00958251953,-0.614074707,0.356079102,2.7734375,-4.7109375,-4.13671875,-8.5859375,4.9296875,0.25,0.49609375,0.86328125,-0.69921875
127,1243311,1543311,0.706542969,0.0103759766,-0.612854004,0.35369873,2.7734375,-4.7109375,-4.13671875,-8.5859375,4.9296875,0.25,0.33203125,0.35546875,-0.162109375
128,1255863,1555863,0.707641602,0.00988769531,-0.612182617,0.352539062,2.55078125,-4.78515625,-3.86328125,-8.6328125,4.8515625,0.09375,0.33203125,0.35546875,-0.162109375
129,1263369,1563369,0.707885742,0.00799560547,-0.612121582,0.352355957,2.55078125,-4.78515625,-3.86328125,-8.6328125,4.8515625,0.09375,0.27734375,-0.2265625,0.361328125
130,1271131,1571131,0.707336426,0.00494384766,-0.612487793,0.352844238,2.68359375,-5.30078125,-4.74609375,-8.609375,4.8671875,0.0546875,0.27734375,-0.2265625,0.361328125
131,1284833,1584833,0.706054688,0.000183105469,-0.613342285,0.354003906,2.68359375,-5.30078125,-4.74609375,-8.609375,4.8671875,0.0546875,0.32421875,-0.6953125,0.857421875
132,1291477,1591477,0.704040527,-0.00592041016,-0.614562988,0.355834961,2.6953125,-5.0859375,-5.28125,-8.546875,4.9609375,0.09375,0.32421875,-0.6953125,0.857421875
133,1303522,1603522,0.701477051,-0.0133666992,-0.616149902,0.357971191,2.6953125,-5.0859375,-5.28125,-8.546875,4.9609375,0.09375,0.490234375,-1.19726562,1.32617188
134,1310947,1610947,0.698364258,-0.0222167969,-0.618041992,0.360290527,2.6171875,-4.890625,-5.51171875,-8.4296875,5.1484375,0.2109375,0.490234375,-1.19726562,1.32617188
135,1323964,1623964,0.694458008,-0.0333862305,-0.620361328,0.363037109,2.6171875,-4.890625,-5.51171875,-8.4296875,5.1484375,0.2109375,0.7265625,-1.63867188,1.79882812
136,1331498,1631498,0.689941406,-0.0454101562,-0.622802734,0.366149902,2.58984375,-4.57421875,-5.4921875,-8.25,5.40625,0.3828125,0.7265625,-1.63867188,1.79882812
137,1344575,1644575,0.684631348,-0.0582885742,-0.625427246,0.369812012,2.58984375,-4.57421875,-5.4921875,-8.25,5.40625,0.3828125,0.646484375,-2.01171875,2.15429688
138,1353488,1653488,0.678527832,-0.0709838867,-0.628234863,0.374084473,2.37890625,-3.125,-3.55859375,-8,5.71875,0.59375,0.646484375,-2.01171875,2.15429688
139,1364854,1664854,0.670471191,-0.0849609375,-0.631652832,0.379760742,2.37890625,-3.125,-3.55859375,-8,5.71875,0.59375,0.197265625,-2.49804688,2.48632812
140,1373045,1673045,0.661010742,-0.0989379883,-0.635437012,0.38659668,1.9921875,-2.17578125,-2.26953125,-7.6875,6.0703125,0.875,0.197265625,-2.49804688,2.48632812
141,1383385,1683385,0.65020752,-0.11315918,-0.639404297,0.39440918,1.9921875,-2.17578125,-2.26953125,-7.6875,6.0703125,0.875,-0.2265625,-2.91210938,2.84179688
142,1391034,1691034,0.638977051,-0.127075195,-0.643188477,0.402404785,2.04296875,-2.7578125,-2.8671875,-7.28125,6.4609375,1.28125,-0.2265625,-2.91210938,2.84179688
143,1404926,1704926,0.625915527,-0.143493652,-0.646911621,0.411315918,2.04296875,-2.7578125,-2.8671875,-7.28125,6.4609375,1.28125,-0.083984375,-3.13671875,3.21484375
144,1411477,1711477,0.61328125,-0.160095215,-0.649841309,0.419494629,2.96875,-4.42578125,-4.38671875,-6.7890625,6.8671875,1.7265625,-0.083984375,-3.13671875,3.21484375
145,1425119,1725119,0.600891113,-0.176635742,-0.652099609,0.427124023,2.96875,-4.42578125,-4.38671875,-6.7890625,6.8671875,1.7265625,0.125,-2.95898438,3.16210938
146,1434327,1734327,0.589294434,-0.192138672,-0.653808594,0.433959961,3.45703125,-3.078125,-3.34375,-6.203125,7.28125,2.1015625,0.125,-2.95898438,3.16210938
147,1445286,1745286,0.576538086,-0.209411621,-0.655212402,0.440979004,3.45703125,-3.078125,-3.34375,-6.203125,7.28125,2.1015625,0.314453125,-2.99609375,3.25195312
148,1453078,1753078,0.563659668,-0.226928711,-0.65612793,0.447509766,3.4140625,-2.328125,-2.4921875,-5.5859375,7.640625,2.3984375,0.314453125,-2.99609375,3.25195312
149,1465325,1765325,0.55078125,-0.244812012,-0.656433105,0.453735352,3.4140625,-2.328125,-2.4921875,-5.5859375,7.640625,2.3984375,0.5390625,-3.0546875,3.453125
150,1471882,1771882,0.537719727,-0.262634277,-0.656066895,0.459838867,3.57421875,-1.9296875,-1.8125,-4.90625,8.0078125,2.640625,0.5390625,-3.0546875,3.453125
151,1484751,1784751,0.52331543,-0.280456543,-0.655639648,0.466491699,3.57421875,-1.9296875,-1.8125,-4.90625,8.0078125,2.640625,0.1796875,-3.12109375,3.5234375
152,1498634,1798634,0.508605957,-0.296386719,-0.655578613,0.472961426,3.74609375,1.69921875,0.78515625,-4.15625,8.328125,2.8359375,0.1796875,-3.12109375,3.5234375
153,1505909,1805909,0.4921875,-0.312011719,-0.655883789,0.479858398,3.74609375,1.69921875,0.78515625,-4.15625,8.328125,2.8359375,-0.373046875,-3.26953125,3.39453125
154,1511725,1811725,0.474304199,-0.327209473,-0.65637207,0.486938477,3.6015625,1.43359375,1.46484375,-3.3984375,8.5546875,3.078125,-0.373046875,-3.26953125,3.39453125
155,1525894,1825894,0.457580566,-0.341247559,-0.656677246,0.492919922,3.6015625,1.43359375,1.46484375,-3.3984375,8.5546875,3.078125,-0.2890625,-3.33984375,3.29882812
156,1533511,1833511,0.440307617,-0.356933594,-0.656066895,0.498352051,4.765625,0.83984375,0.671875,-2.609375,8.7265625,3.3359375,-0.2890625,-3.33984375,3.29882812
157,1544990,1844990,0.425231934,-0.37286377,-0.65411377,0.502258301,4.765625,0.83984375,0.671875,-2.609375,8.7265625,3.3359375,0.64453125,-3,3.11132812
158,1551740,1851740,0.412475586,-0.389160156,-0.650878906,0.504760742,4.19140625,0.5546875,1.44921875,-1.8046875,8.859375,3.4375,0.64453125,-3,3.11132812
159,1576485,1876485,0.400878906,-0.40637207,-0.646362305,0.506347656,4.19140625,0.5546875,1.44921875,-1.8046875,8.859375,3.4375,1.45507812,-2.71289062,3.01953125
160,1576533,1876533,0.390014648,-0.423522949,-0.640991211,0.507568359,3.5390625,3.23828125,3.63671875,-1.078125,9.0078125,3.3203125,1.45507812,-2.71289062,3.01953125
161,1593027,1893027,0.379272461,-0.439575195,-0.635803223,0.508605957,3.5390625,3.23828125,3.63671875,-1.078125,9.0078125,3.3203125,1.1640625,-2.45703125,2.7109375
162,1596400,1896400,0.368041992,-0.453796387,-0.631591797,0.509643555,2.81640625,4.6171875,4.58984375,-0.390625,9.125,3.09375,1.1640625,-2.45703125,2.7109375
163,1606190,1906190,0.355651855,-0.466430664,-0.628540039,0.510803223,2.81640625,4.6171875,4.58984375,-0.390625,9.125,3.09375,0.283203125,-2.53515625,2.44140625
164,1611602,1911602,0.34185791,-0.478088379,-0.626403809,0.512084961,2.2265625,4.5703125,4.8359375,0.234375,9.171875,2.9609375,0.283203125,-2.53515625,2.44140625
165,1625544,1925544,0.32824707,-0.488586426,-0.624633789,0.513244629,2.2265625,4.5703125,4.8359375,0.234375,9.171875,2.9609375,0.001953125,-2.5078125,2.31835938
166,1634137,1934137,0.316040039,-0.498413086,-0.622436523,0.514099121,2.70703125,2.42578125,3.08984375,0.828125,9.1328125,2.90625,0.001953125,-2.5078125,2.31835938
167,1646175,1946175,0.304626465,-0.509399414,-0.618774414,0.514587402,2.70703125,2.42578125,3.08984375,0.828125,9.1328125,2.90625,0.728515625,-2.09179688,2.20898438
168,1655486,1955486,0.295410156,-0.520935059,-0.61340332,0.514831543,3.23828125,0.1640625,0.17578125,1.3671875,9.09375,2.796875,0.728515625,-2.09179688,2.20898438
169,1665508,1965508,0.288574219,-0.532897949,-0.606384277,0.514892578,3.23828125,0.1640625,0.17578125,1.3671875,9.09375,2.796875,1.69921875,-1.4921875,2.09375
170,1672019,1972019,0.283691406,-0.54498291,-0.598022461,0.514709473,2.76953125,-0.24609375,0.2734375,1.875,9.0859375,2.5078125,1.69921875,-1.4921875,2.09375
171,1685304,1985304,0.279907227,-0.55682373,-0.588806152,0.514709473,2.76953125,-0.24609375,0.2734375,1.875,9.0859375,2.5078125,2.05664062,-1.05664062,2.0234375
172,1693874,1993874,0.276489258,-0.567382812,-0.579956055,0.515014648,2.53125,2.328125,2.40234375,2.3046875,9.078125,2.1015625,2.05664062,-1.05664062,2.0234375
173,1706625,2006625,0.271972656,-0.577819824,-0.571044922,0.515869141,2.53125,2.328125,2.40234375,2.3046875,9.078125,2.1015625,1.43359375,-0.982421875,2.04492188
174,1716127,2016127,0.266357422,-0.586425781,-0.563781738,0.517028809,2.08984375,4.46484375,3.3125,2.7109375,9.046875,1.7265625,1.43359375,-0.982421875,2.04492188
175,1727221,2027221,0.259338379,-0.594360352,-0.557434082,0.518432617,2.08984375,4.46484375,3.3125,2.7109375,9.046875,1.7265625,0.69140625,-1.12109375,2.01757812
176,1736095,2036095,0.25177002,-0.601928711,-0.551574707,0.51965332,1.296875,3.67578125,2.14453125,3.1171875,8.953125,1.4765625,0.69140625,-1.12109375,2.01757812
177,1747442,2047442,0.245056152,-0.608642578,-0.546386719,0.520568848,1.296875,3.67578125,2.14453125,3.1171875,8.953125,1.4765625,0.62109375,-1.046875,1.74609375
178,1752245,2052245,0.239196777,-0.614807129,-0.541442871,0.521179199,0.73828125,2.37109375,0.80078125,3.484375,8.84375,1.2890625,0.62109375,-1.046875,1.74609375
179,1767533,2067533,0.233947754,-0.620910645,-0.536376953,0.52154541,0.73828125,2.37109375,0.80078125,3.484375,8.84375,1.2890625,0.728515625,-0.84765625,1.37890625
180,1773491,2073491,0.229736328,-0.626281738,-0.531799316,0.521728516,0.43359375,2.42578125,0.94140625,3.7890625,8.75,1.109375,0.728515625,-0.84765625,1.37890625
181,1786602,2086602,0.225769043,-0.631164551,-0.52746582,0.521972656,0.43359375,2.42578125,0.94140625,3.7890625,8.75,1.109375,0.560546875,-0.6484375,1.125
182,1792577,2092577,0.221984863,-0.635375977,-0.523742676,0.522216797,0.390625,2.96875,1.8125,4.0234375,8.6640625,0.9296875,0.560546875,-0.6484375,1.125
183,1807431,2107431,0.218139648,-0.63873291,-0.520874023,0.522583008,0.390625,2.96875,1.8125,4.0234375,8.6640625,0.9296875,0.19921875,-0.568359375,0.91796875
184,1817618,2117618,0.214355469,-0.641357422,-0.518920898,0.522888184,0.12890625,3.0859375,1.8515625,4.2109375,8.5859375,0.8125,0.19921875,-0.568359375,0.91796875
185,1828169,2128169,0.210632324,-0.643554688,-0.517456055,0.523193359,0.12890625,3.0859375,1.8515625,4.2109375,8.5859375,0.8125,-0.03515625,-0.484375,0.7109375
186,1831903,2131903,0.207275391,-0.645263672,-0.516296387,0.52355957,0.0859375,2.23046875,0.98828125,4.3671875,8.5234375,0.7578125,-0.03515625,-0.484375,0.7109375
187,1848098,2148098,0.204528809,-0.646728516,-0.515197754,0.523925781,0.0859375,2.23046875,0.98828125,4.3671875,8.5234375,0.7578125,0.005859375,-0.26953125,0.5078125
188,1855365,2155365,0.202697754,-0.647949219,-0.513916016,0.524353027,0.0546875,1.6796875,0.359375,4.4765625,8.4609375,0.734375,0.005859375,-0.26953125,0.5078125
189,1866956,2166956,0.201660156,-0.649169922,-0.512268066,0.524902344,0.0546875,1.6796875,0.359375,4.4765625,8.4609375,0.734375,0.294921875,-0.037109375,0.373046875
190,1871993,2171993,0.201538086,-0.650390625,-0.510131836,0.52545166,0.015625,1.05859375,-0.453125,4.5546875,8.4296875,0.703125,0.294921875,-0.037109375,0.373046875
191,1888709,2188709,0.202026367,-0.651611328,-0.507873535,0.526062012,0.015625,1.05859375,-0.453125,4.5546875,8.4296875,0.703125,0.455078125,0.130859375,0.259765625
192,1900591,2200591,0.202697754,-0.652526855,-0.505737305,0.526611328,-0.0390625,1.2265625,-0.46484375,4.609375,8.4140625,0.640625,0.455078125,0.130859375,0.259765625
193,1907097,2207097,0.203430176,-0.653381348,-0.50378418,0.52722168,-0.0390625,1.2265625,-0.46484375,4.609375,8.4140625,0.640625,0.3359375,0.13671875,0.181640625
194,1916033,2216033,0.203918457,-0.653930664,-0.502319336,0.527709961,-0.38671875,1.51171875,-0.06640625,4.6484375,8.3984375,0.5859375,0.3359375,0.13671875,0.181640625
195,1926338,2226338,0.204101562,-0.654296875,-0.501342773,0.528137207,-0.38671875,1.51171875,-0.06640625,4.6484375,8.3984375,0.5859375,0.109375,0.046875,0.125
196,1936714,2236714,0.203979492,-0.654541016,-0.500671387,0.528442383,-0.45703125,1.21484375,0.07421875,4.6796875,8.390625,0.5625,0.109375,0.046875,0.125
197,1949504,2249504,0.203857422,-0.654968262,-0.5,0.528625488,-0.45703125,1.21484375,0.07421875,4.6796875,8.390625,0.5625,0.111328125,-0.021484375,0.12890625
198,1953586,2253586,0.203735352,-0.655578613,-0.499206543,0.528686523,-0.203125,0.2265625,-0.296875,4.6953125,8.3828125,0.546875,0.111328125,-0.021484375,0.12890625
199,1966132,2266132,0.203796387,-0.656433105,-0.49798584,0.528747559,-0.203125,0.2265625,-0.296875,4.6953125,8.3828125,0.546875,0.275390625,-0.04296875,0.16015625
200,1981332,2281332,0.203918457,-0.657470703,-0.496643066,0.528686523,0.1484375,-0.03515625,-0.33984375,4.7265625,8.375,0.515625,0.275390625,-0.04296875,0.16015625
201,1986009,2286009,0.203979492,-0.658447266,-0.495361328,0.528625488,0.1484375,-0.03515625,-0.33984375,4.7265625,8.375,0.515625,0.2578125,-0.056640625,0.158203125
202,1994109,2294109,0.203918457,-0.659362793,-0.49420166,0.528564453,0.1953125,0.203125,0.13671875,4.7578125,8.3671875,0.4609375,0.2578125,-0.056640625,0.158203125
203,2008019,2308019,0.203552246,-0.660339355,-0.493103027,0.528564453,0.1953125,0.203125,0.13671875,4.7578125,8.3671875,0.4609375,0.205078125,-0.109375,0.2109375
204,2014947,2314947,0.203125,-0.661315918,-0.492004395,0.528503418,-0.07421875,0.1328125,0.4140625,4.796875,8.359375,0.4140625,0.205078125,-0.109375,0.2109375
205,2028812,2328812,0.202758789,-0.66229248,-0.490844727,0.528564453,-0.07421875,0.1328125,0.4140625,4.796875,8.359375,0.4140625,0.201171875,-0.056640625,0.193359375
206,2032561,2332561,0.202636719,-0.663024902,-0.489807129,0.528625488,-0.265625,0.38671875,1.21875,4.8359375,8.3359375,0.375,0.201171875,-0.056640625,0.193359375
207,2046395,2346395,0.202758789,-0.663513184,-0.489013672,0.528686523,-0.265625,0.38671875,1.21875,4.8359375,8.3359375,0.375,0.109375,0.0234375,0.05078125
208,2061368,2361368,0.20300293,-0.663452148,-0.488830566,0.528808594,-0.21484375,1.3046875,1.59375,4.859375,8.3359375,0.34375,0.109375,0.0234375,0.05078125
209,2066779,2366779,0.203552246,-0.662780762,-0.489318848,0.528991699,-0.21484375,1.3046875,1.59375,4.859375,8.3359375,0.34375,-0.150390625,0.16796875,-0.1953125
210,2075601,2375601,0.204467773,-0.661437988,-0.490478516,0.529296875,-0.07421875,2.37109375,1.1953125,4.8359375,8.34375,0.359375,-0.150390625,0.16796875,-0.1953125
211,2088970,2388970,0.205993652,-0.659301758,-0.492248535,0.529663086,-0.07421875,2.37109375,1.1953125,4.8359375,8.34375,0.359375,-0.337890625,0.4140625,-0.525390625
212,2095619,2395619,0.208129883,-0.656555176,-0.494567871,0.530090332,-0.2109375,2.72265625,1,4.78125,8.375,0.4375,-0.337890625,0.4140625,-0.525390625
213,2107919,2407919,0.211242676,-0.652770996,-0.497802734,0.530517578,-0.2109375,2.72265625,1,4.78125,8.375,0.4375,-0.5078125,0.669921875,-0.91796875
214,2114054,2414054,0.214782715,-0.64855957,-0.501403809,0.530944824,-0.1640625,3.49609375,0.9921875,4.65625,8.4453125,0.5625,-0.5078125,0.669921875,-0.91796875
215,2127563,2427563,0.219116211,-0.643188477,-0.505981445,0.531311035,-0.1640625,3.49609375,0.9921875,4.65625,8.4453125,0.5625,-0.73828125,0.888671875,-1.32421875
216,2137511,2437511,0.223876953,-0.636962891,-0.511474609,0.531555176,-0.0078125,4.12109375,0.97265625,4.4609375,8.546875,0.734375,-0.73828125,0.888671875,-1.32421875
217,2147827,2447827,0.228881836,-0.629516602,-0.518249512,0.531738281,-0.0078125,4.12109375,0.97265625,4.4609375,8.546875,0.734375,-1.203125,1.02929688,-1.75585938
218,2154167,2454167,0.233886719,-0.620788574,-0.526550293,0.531677246,0.16015625,5.375,1.21484375,4.1796875,8.671875,0.9921875,-1.203125,1.02929688,-1.75585938
219,2167322,2467322,0.238647461,-0.610595703,-0.536437988,0.531494141,0.16015625,5.375,1.21484375,4.1796875,8.671875,0.9921875,-2.05273438,1.15429688,-2.33203125
220,2173095,2473095,0.243347168,-0.598205566,-0.548522949,0.531066895,0.65625,6.65234375,1.7265625,3.796875,8.8125,1.359375,-2.05273438,1.15429688,-2.33203125
221,2187741,2487741,0.247619629,-0.584533691,-0.561767578,0.530456543,0.65625,6.65234375,1.7265625,3.796875,8.8125,1.359375,-2.93164062,1.26171875,-2.91015625
222,2194081,2494081,0.25201416,-0.567749023,-0.577880859,0.529418945,1.9140625,7.73046875,2.61328125,3.3046875,8.921875,1.890625,-2.93164062,1.26171875,-2.91015625
223,2207238,2507238,0.256408691,-0.550048828,-0.594055176,0.528076172,1.9140625,7.73046875,2.61328125,3.3046875,8.921875,1.890625,-3.43164062,1.49804688,-3.37695312
224,2218508,2518508,0.261779785,-0.530944824,-0.610412598,0.526306152,3.5078125,6.7109375,1.93359375,2.671875,8.984375,2.5703125,-3.43164062,1.49804688,-3.37695312
225,2227578,2527578,0.268310547,-0.512207031,-0.62512207,0.524291992,3.5078125,6.7109375,1.93359375,2.671875,8.984375,2.5703125,-3.00390625,1.98242188,-3.671875
226,2234498,2534498,0.276977539,-0.492858887,-0.638916016,0.521728516,4.890625,4.3828125,0.7421875,1.9375,8.9765625,3.2265625,-3.00390625,1.98242188,-3.671875
227,2247638,2547638,0.287719727,-0.472961426,-0.651611328,0.518554688,4.890625,4.3828125,0.7421875,1.9375,8.9765625,3.2265625,-2.28320312,2.51757812,-3.86914062
228,2253087,2553087,0.300231934,-0.452697754,-0.663269043,0.514770508,4.6953125,3.9765625,1.2890625,1.1015625,8.921875,3.7890625,-2.28320312,2.51757812,-3.86914062
229,2267258,2567258,0.312927246,-0.433532715,-0.673339844,0.510620117,4.6953125,3.9765625,1.2890625,1.1015625,8.921875,3.7890625,-1.8515625,2.76171875,-3.97265625
230,2274173,2574173,0.325805664,-0.414428711,-0.682617188,0.506103516,4.34375,3.80859375,2.21484375,0.1875,8.8203125,4.203125,-1.8515625,2.76171875,-3.97265625
231,2287316,2587316,0.33972168,-0.393981934,-0.691711426,0.500915527,4.34375,3.80859375,2.21484375,0.1875,8.8203125,4.203125,-1.73632812,2.91601562,-4.015625
232,2298497,2598497,0.35357666,-0.373291016,-0.700073242,0.495483398,4.5234375,3.0859375,1.91015625,-0.7578125,8.6640625,4.5078125,-1.73632812,2.91601562,-4.015625
233,2309063,2609063,0.366516113,-0.35357666,-0.707458496,0.49005127,4.5234375,3.0859375,1.91015625,-0.7578125,8.6640625,4.5078125,-1.73828125,2.96679688,-4.01367188
234,2315075,2615075,0.379882812,-0.332641602,-0.714599609,0.484130859,4.625,2.140625,1.26171875,-1.703125,8.421875,4.734375,-1.73828125,2.96679688,-4.01367188
235,2327677,2627677,0.393554688,-0.311340332,-0.721008301,0.477844238,4.625,2.140625,1.26171875,-1.703125,8.421875,4.734375,-1.52929688,3.04101562,-3.90234375
236,2335367,2635367,0.407348633,-0.29083252,-0.726318359,0.471130371,4.62890625,0.66015625,0.265625,-2.6640625,8.1015625,4.890625,-1.52929688,3.04101562,-3.90234375
237,2346768,2646768,0.421081543,-0.271728516,-0.73034668,0.464172363,4.62890625,0.66015625,0.265625,-2.6640625,8.1015625,4.890625,-1.02734375,3.1015625,-3.73242188
238,2356061,2656061,0.434753418,-0.253723145,-0.733276367,0.45703125,4.38671875,-1.5234375,-0.72265625,-3.5703125,7.7578125,4.921875,-1.02734375,3.1015625,-3.73242188
239,2367671,2667671,0.448913574,-0.235595703,-0.735473633,0.449462891,4.38671875,-1.5234375,-0.72265625,-3.5703125,7.7578125,4.921875,-0.759765625,3.12109375,-3.515625
240,2377621,2677621,0.46282959,-0.217712402,-0.736999512,0.441833496,4.625,-1.85546875,-0.0390625,-4.421875,7.3984375,4.8125,-0.759765625,3.12109375,-3.515625
241,2388808,2688808,0.475952148,-0.200561523,-0.737731934,0.434753418,4.625,-1.85546875,-0.0390625,-4.421875,7.3984375,4.8125,-0.728515625,3.01367188,-3.1484375
242,2395173,2695173,0.487792969,-0.184814453,-0.737854004,0.428405762,4.79296875,-2.16015625,-0.09765625,-5.203125,7.015625,4.640625,-0.728515625,3.01367188,-3.1484375
243,2407819,2707819,0.5,-0.168457031,-0.737304688,0.421936035,4.79296875,-2.16015625,-0.09765625,-5.203125,7.015625,4.640625,-0.685546875,2.93554688,-2.80664062
244,2415439,2715439,0.51184082,-0.152709961,-0.73614502,0.415710449,4.54296875,-2.5078125,0.01171875,-5.875,6.6328125,4.4140625,-0.685546875,2.93554688,-2.80664062
245,2427319,2727319,0.523010254,-0.138183594,-0.734436035,0.409912109,4.54296875,-2.5078125,0.01171875,-5.875,6.6328125,4.4140625,-0.5234375,2.85546875,-2.4765625
246,2433306,2733306,0.533996582,-0.124328613,-0.732116699,0.404174805,4.48046875,-2.9375,-1.21484375,-6.4609375,6.2578125,4.1484375,-0.5234375,2.85546875,-2.4765625
247,2447517,2747517,0.54498291,-0.111206055,-0.729248047,0.39855957,4.48046875,-2.9375,-1.21484375,-6.4609375,6.2578125,4.1484375,-0.322265625,2.7890625,-2.17382812
248,2457601,2757601,0.555419922,-0.0989990234,-0.726013184,0.393249512,4.265625,-2.6015625,-1.8515625,-6.9765625,5.921875,3.828125,-0.322265625,2.7890625,-2.17382812
249,2469934,2769934,0.565734863,-0.0871582031,-0.722351074,0.388000488,4.265625,-2.6015625,-1.8515625,-6.9765625,5.921875,3.828125,-0.224609375,2.703125,-1.91601562
250,2474719,2774719,0.575317383,-0.0764160156,-0.718566895,0.383178711,3.890625,-2.79296875,-2.10546875,-7.40625,5.6171875,3.46875,-0.224609375,2.703125,-1.91601562
251,2486537,2786537,0.585083008,-0.065246582,-0.714416504,0.378173828,3.890625,-2.79296875,-2.10546875,-7.40625,5.6171875,3.46875,-0.21875,2.54101562,-1.72851562
252,2495113,2795113,0.594177246,-0.0545043945,-0.710205078,0.373596191,3.2734375,-2.015625,-1.9296875,-7.78125,5.3359375,3.1015625,-0.21875,2.54101562,-1.72851562
253,2507035,2807035,0.602539062,-0.0443115234,-0.706054688,0.369384766,3.2734375,-2.015625,-1.9296875,-7.78125,5.3359375,3.1015625,-0.296875,2.35742188,-1.54492188
254,2515237,2815237,0.609985352,-0.0347900391,-0.702087402,0.365722656,2.92578125,-1.84765625,-2.03125,-8.0859375,5.0546875,2.7421875,-0.296875,2.35742188,-1.54492188
255,2526842,2826842,0.617370605,-0.0248413086,-0.697875977,0.362121582,2.92578125,-1.84765625,-2.03125,-8.0859375,5.0546875,2.7421875,-0.390625,2.16601562,-1.38867188
256,2539260,2839260,0.624267578,-0.0153198242,-0.693725586,0.358825684,2.1875,-1.90234375,-1.51171875,-8.34375,4.8046875,2.4140625,-0.390625,2.16601562,-1.38867188
257,2549203,2849203,0.630432129,-0.00677490234,-0.689819336,0.355957031,2.1875,-1.90234375,-1.51171875,-8.34375,4.8046875,2.4140625,-0.384765625,1.984375,-1.22265625
258,2555178,2855178,0.636535645,0.00170898438,-0.685668945,0.353027344,2.23828125,-1.67578125,-1.62890625,-8.546875,4.578125,2.109375,-0.384765625,1.984375,-1.22265625
259,2567149,2867149,0.642700195,0.00964355469,-0.681396484,0.350097656,2.23828125,-1.67578125,-1.62890625,-8.546875,4.578125,2.109375,-0.21484375,1.91796875,-1.06054688
260,2574212,2874212,0.648864746,0.0169067383,-0.676940918,0.346984863,2.109375,-2.03515625,-2.625,-8.7265625,4.359375,1.8046875,-0.21484375,1.91796875,-1.06054688
261,2591019,2891019,0.654846191,0.0231933594,-0.672607422,0.343933105,2.109375,-2.03515625,-2.625,-8.7265625,4.359375,1.8046875,0.005859375,1.81054688,-0.880859375
262,2595447,2895447,0.660583496,0.0285644531,-0.668334961,0.340759277,2.01953125,-2.28125,-3.1875,-8.8671875,4.1875,1.484375,0.005859375,1.81054688,-0.880859375
263,2607424,2907424,0.666625977,0.0336303711,-0.663879395,0.337219238,2.01953125,-2.28125,-3.1875,-8.8671875,4.1875,1.484375,0.21875,1.6796875,-0.76171875
264,2618829,2918829,0.672180176,0.0380859375,-0.659790039,0.33380127,1.05859375,-2.33203125,-3.09375,-8.9765625,4.046875,1.1640625,0.21875,1.6796875,-0.76171875
265,2629160,2929160,0.677062988,0.0419921875,-0.65612793,0.330688477,1.05859375,-2.33203125,-3.09375,-8.9765625,4.046875,1.1640625,0.201171875,1.41015625,-0.65234375
266,2632764,2932764,0.68145752,0.0457763672,-0.652709961,0.327880859,0.5703125,-2.29296875,-3.03515625,-9.0625,3.9296875,0.875,0.201171875,1.41015625,-0.65234375
267,2646682,2946682,0.685058594,0.0496826172,-0.649780273,0.325561523,0.5703125,-2.29296875,-3.03515625,-9.0625,3.9296875,0.875,-0.078125,0.998046875,-0.5625
268,2655209,2955209,0.687438965,0.0533447266,-0.647644043,0.32421875,0.31640625,-1.83203125,-2.6875,-9.1171875,3.8125,0.640625,-0.078125,0.998046875,-0.5625
269,2669130,2969130,0.689025879,0.0570678711,-0.645996094,0.323547363,0.31640625,-1.83203125,-2.6875,-9.1171875,3.8125,0.640625,-0.34375,0.56640625,-0.431640625
270,2672864,2972864,0.689819336,0.0601806641,-0.644958496,0.323303223,0.70703125,-2.19921875,-3.10546875,-9.1640625,3.71875,0.5234375,-0.34375,0.56640625,-0.431640625
271,2686269,2986269,0.690368652,0.0626831055,-0.644226074,0.323181152,0.70703125,-2.19921875,-3.10546875,-9.1640625,3.71875,0.5234375,-0.1953125,0.24609375,-0.251953125
272,2700055,3000055,0.690673828,0.0640258789,-0.643920898,0.322937012,1.23046875,-3.0078125,-3.96484375,-9.1875,3.6484375,0.4609375,-0.1953125,0.24609375,-0.251953125
273,2708760,3008760,0.690856934,0.0640869141,-0.643859863,0.322570801,1.23046875,-3.0078125,-3.96484375,-9.1875,3.6484375,0.4609375,0.15234375,-0.025390625,0.0234375
274,2714509,3014509,0.690917969,0.0627441406,-0.644165039,0.322143555,1.7265625,-3.4453125,-4.71484375,-9.1875,3.625,0.4453125,0.15234375,-0.025390625,0.0234375
275,2727446,3027446,0.690795898,0.0600585938,-0.64465332,0.321838379,1.7265625,-3.4453125,-4.71484375,-9.1875,3.625,0.4453125,0.416015625,-0.3046875,0.369140625
276,2733217,3033217,0.690368652,0.0564575195,-0.645385742,0.321960449,2.25,-3.8203125,-4.72265625,-9.171875,3.65625,0.453125,0.416015625,-0.3046875,0.369140625
277,2746862,3046862,0.68951416,0.0518188477,-0.64642334,0.322631836,2.25,-3.8203125,-4.72265625,-9.171875,3.65625,0.453125,0.45703125,-0.634765625,0.732421875
278,2754218,3054218,0.688049316,0.0463256836,-0.647705078,0.323974609,2.1953125,-3.69140625,-3.95703125,-9.1171875,3.7578125,0.4921875,0.45703125,-0.634765625,0.732421875
279,2770951,3070951,0.685852051,0.0393676758,-0.649353027,0.32611084,2.1953125,-3.69140625,-3.95703125,-9.1171875,3.7578125,0.4921875,0.458984375,-1.05664062,1.20507812
280,2779486,3079486,0.683227539,0.0315551758,-0.651184082,0.328857422,2.5234375,-4.1328125,-4.140625,-9.0234375,3.9296875,0.6015625,0.458984375,-1.05664062,1.20507812
281,2789893,3089893,0.680114746,0.0220947266,-0.653198242,0.33203125,2.5234375,-4.1328125,-4.140625,-9.0234375,3.9296875,0.6015625,0.669921875,-1.44140625,1.72851562
282,2793631,3093631,0.676513672,0.0108032227,-0.655334473,0.335754395,3.15625,-4.6484375,-4.53515625,-8.890625,4.1796875,0.765625,0.669921875,-1.44140625,1.72851562
283,2810612,3110612,0.672485352,-0.00201416016,-0.657409668,0.339904785,3.15625,-4.6484375,-4.53515625,-8.890625,4.1796875,0.765625,0.89453125,-1.70703125,2.21289062
284,2814747,3114747,0.668212891,-0.0155639648,-0.659301758,0.344238281,3.55859375,-3.9765625,-3.7734375,-8.6796875,4.5390625,0.9609375,0.89453125,-1.70703125,2.21289062
285,2829428,3129428,0.663146973,-0.0300292969,-0.661254883,0.349365234,3.55859375,-3.9765625,-3.7734375,-8.6796875,4.5390625,0.9609375,0.787109375,-1.94726562,2.50976562
286,2833158,3133158,0.657165527,-0.0440673828,-0.663391113,0.355102539,3.09375,-1.890625,-1.12109375,-8.40625,4.9453125,1.1796875,0.787109375,-1.94726562,2.50976562
287,2846548,3146548,0.649536133,-0.0588378906,-0.66595459,0.362121582,3.09375,-1.890625,-1.12109375,-8.40625,4.9453125,1.1796875,0.37890625,-2.42773438,2.828125
288,2864454,3164454,0.640441895,-0.0744018555,-0.668640137,0.370361328,2.87109375,-1.6015625,-1.68359375,-8.0703125,5.3828125,1.4765625,0.37890625,-2.42773438,2.828125
289,2869665,3169665,0.63104248,-0.0891113281,-0.671142578,0.378662109,2.87109375,-1.6015625,-1.68359375,-8.0703125,5.3828125,1.4765625,0.130859375,-2.703125,3.12304688
290,2877342,3177342,0.620544434,-0.104736328,-0.673583984,0.387512207,3.28515625,-2.375,-2.46484375,-7.640625,5.8515625,1.8359375,0.130859375,-2.703125,3.12304688
291,2891469,3191469,0.609069824,-0.121887207,-0.675842285,0.396728516,3.28515625,-2.375,-2.46484375,-7.640625,5.8515625,1.8359375,0.28515625,-2.88085938,3.38085938
292,2896005,3196005,0.597595215,-0.139587402,-0.677429199,0.405578613,4.09375,-3.390625,-3.69921875,-7.109375,6.328125,2.2265625,0.28515625,-2.88085938,3.38085938
293,2908510,3208510,0.586791992,-0.156433105,-0.678222656,0.413757324,4.09375,-3.390625,-3.69921875,-7.109375,6.328125,2.2265625,0.416015625,-2.671875,3.38671875
294,2917807,3217807,0.576171875,-0.172851562,-0.678527832,0.421630859,3.69921875,-2.33203125,-1.98046875,-6.5234375,6.8046875,2.5390625,0.416015625,-2.671875,3.38671875
295,2931648,3231648,0.564575195,-0.189819336,-0.678588867,0.42980957,3.69921875,-2.33203125,-1.98046875,-6.5234375,6.8046875,2.5390625,0.345703125,-2.74414062,3.48632812
296,2940528,3240528,0.552185059,-0.206848145,-0.678405762,0.438354492,2.73046875,-0.83203125,-0.78125,-5.8984375,7.21875,2.796875,0.345703125,-2.74414062,3.48632812
297,2951383,3251383,0.539550781,-0.223266602,-0.67791748,0.446655273,2.73046875,-0.83203125,-0.78125,-5.8984375,7.21875,2.796875,0.234375,-2.83203125,3.60742188
298,2955391,3255391,0.526306152,-0.240356445,-0.676940918,0.454956055,2.265625,-0.45703125,0.22265625,-5.203125,7.609375,3.0546875,0.234375,-2.83203125,3.60742188
299,2970072,3270072,0.512023926,-0.258850098,-0.675292969,0.463500977,2.265625,-0.45703125,0.22265625,-5.203125,7.609375,3.0546875,0.384765625,-2.9296875,3.86328125
300,2977209,3277209,0.498535156,-0.276000977,-0.673156738,0.471313477,2.41015625,-0.37109375,0.00390625,-4.4296875,7.984375,3.2734375,0.384765625,-2.9296875,3.86328125
301,2987915,3287915,0.483764648,-0.294311523,-0.670410156,0.479492188,2.41015625,-0.37109375,0.00390625,-4.4296875,7.984375,3.2734375,0.40234375,-2.89453125,3.87890625
302,2993891,3293891,0.469299316,-0.311767578,-0.667297363,0.487060547,2.6484375,0.06640625,-0.0078125,-3.59375,8.3125,3.4375,0.40234375,-2.89453125,3.87890625
303,3010075,3310075,0.455444336,-0.328186035,-0.66394043,0.49395752,2.6484375,0.06640625,-0.0078125,-3.59375,8.3125,3.4375,0.400390625,-2.62109375,3.52929688
304,3018687,3318687,0.442749023,-0.342895508,-0.660705566,0.49987793,2.203125,1.47265625,1.546875,-2.765625,8.5546875,3.53125,0.400390625,-2.62109375,3.52929688
305,3027932,3327932,0.428466797,-0.358215332,-0.657287598,0.50604248,2.203125,1.47265625,1.546875,-2.765625,8.5546875,3.53125,0.1796875,-2.59179688,3.26757812
306,3034577,3334577,0.414306641,-0.372192383,-0.654296875,0.511535645,1.8125,4.0859375,4.01171875,-1.9921875,8.734375,3.59375,0.1796875,-2.59179688,3.26757812
307,3050929,3350929,0.399597168,-0.386535645,-0.651062012,0.516723633,1.8125,4.0859375,4.01171875,-1.9921875,8.734375,3.59375,0.244140625,-2.74023438,3.27539062
308,3059663,3359663,0.385559082,-0.401123047,-0.647277832,0.521118164,1.66015625,3.53515625,4.12890625,-1.2265625,8.828125,3.6328125,0.244140625,-2.74023438,3.27539062
309,3069103,3369103,0.372131348,-0.416564941,-0.642456055,0.524658203,1.66015625,3.53515625,4.12890625,-1.2265625,8.828125,3.6328125,0.92578125,-2.76367188,3.32421875
310,3073906,3373906,0.359436035,-0.433410645,-0.636291504,0.52734375,1.84375,1.41015625,1.578125,-0.453125,8.921875,3.578125,0.92578125,-2.76367188,3.32421875
311,3090081,3390081,0.34765625,-0.45098877,-0.629150391,0.52911377,1.84375,1.41015625,1.578125,-0.453125,8.921875,3.578125,1.57617188,-2.59765625,3.14648438
312,3098133,3398133,0.337158203,-0.467529297,-0.622009277,0.529968262,2.33984375,0.8359375,0.47265625,0.3125,9,3.34375,1.57617188,-2.59765625,3.14648438
313,3107041,3407041,0.326599121,-0.484436035,-0.614440918,0.530212402,2.33984375,0.8359375,0.47265625,0.3125,9,3.34375,1.60351562,-2.45117188,2.75390625
314,3113595,3413595,0.317321777,-0.499328613,-0.607727051,0.529785156,2.7890625,-0.03125,-0.96484375,1.015625,9.0625,3.015625,1.60351562,-2.45117188,2.75390625
315,3131467,3431467,0.307739258,-0.514526367,-0.600830078,0.528747559,2.7890625,-0.03125,-0.96484375,1.015625,9.0625,3.015625,1.50195312,-2.32421875,2.375
316,3135459,3435459,0.298828125,-0.528320312,-0.594299316,0.527587891,2.9609375,0.41796875,-1.109375,1.609375,9.0703125,2.6640625,1.50195312,-2.32421875,2.375
317,3149013,3449013,0.2890625,-0.542602539,-0.587158203,0.526611328,2.9609375,0.41796875,-1.109375,1.609375,9.0703125,2.6640625,1.37890625,-2.25585938,2.49609375
318,3153812,3453812,0.278564453,-0.556335449,-0.57989502,0.525939941,3.69921875,1.9453125,0.7421875,2.171875,9.0390625,2.3046875,1.37890625,-2.25585938,2.49609375
319,3171118,3471118,0.267456055,-0.568908691,-0.573242188,0.52557373,3.69921875,1.9453125,0.7421875,2.171875,9.0390625,2.3046875,0.94140625,-2.36132812,2.72460938
320,3178959,3478959,0.255187988,-0.580627441,-0.567016602,0.525634766,3.671875,2.91015625,1.9609375,2.734375,8.953125,1.96875,0.94140625,-2.36132812,2.72460938
321,3189127,3489127,0.240600586,-0.592346191,-0.560791016,0.526062012,3.671875,2.91015625,1.9609375,2.734375,8.953125,1.96875,0.32421875,-2.40820312,2.89453125
322,3194181,3494181,0.225769043,-0.602661133,-0.555297852,0.526733398,3.6171875,3.05859375,1.68359375,3.328125,8.8046875,1.7109375,0.32421875,-2.40820312,2.89453125
323,3210159,3510159,0.210754395,-0.611877441,-0.550476074,0.527404785,3.6171875,3.05859375,1.68359375,3.328125,8.8046875,1.7109375,-0.130859375,-2.37890625,2.8515625
324,3217869,3517869,0.195678711,-0.620056152,-0.546264648,0.528015137,3.52734375,3.078125,1.03515625,3.9140625,8.59375,1.515625,-0.130859375,-2.37890625,2.8515625
325,3228305,3528305,0.180114746,-0.627807617,-0.542358398,0.528442383,3.52734375,3.078125,1.03515625,3.9140625,8.59375,1.515625,-0.369140625,-2.18554688,2.53320312
326,3235356,3535356,0.165588379,-0.634521484,-0.539001465,0.528564453,3.1953125,2.31640625,1.48046875,4.4375,8.359375,1.375,-0.369140625,-2.18554688,2.53320312
327,3250235,3550235,0.152648926,-0.640197754,-0.536437988,0.528320312,3.1953125,2.31640625,1.48046875,4.4375,8.359375,1.375,-0.451171875,-1.87109375,1.96289062
328,3264457,3564457,0.140991211,-0.644714355,-0.534545898,0.527893066,2.03125,3.30859375,2.3046875,4.875,8.1328125,1.2421875,-0.451171875,-1.87109375,1.96289062
329,3270484,3570484,0.129882812,-0.648498535,-0.53326416,0.527404785,2.03125,3.30859375,2.3046875,4.875,8.1328125,1.2421875,-0.623046875,-1.56445312,1.5546875
330,3274242,3574242,0.119506836,-0.651672363,-0.532287598,0.526916504,1.10546875,4.37890625,3.30078125,5.1875,7.9453125,1.1640625,-0.623046875,-1.56445312,1.5546875
331,3291192,3591192,0.109680176,-0.654541016,-0.53137207,0.526550293,1.10546875,4.37890625,3.30078125,5.1875,7.9453125,1.1640625,-0.537109375,-1.23242188,1.28320312
332,3299389,3599389,0.10168457,-0.656982422,-0.530212402,0.526245117,0.37890625,3.890625,3.15625,5.453125,7.78125,1.1171875,-0.537109375,-1.23242188,1.28320312
333,3308683,3608683,0.0947265625,-0.659606934,-0.528564453,0.525878906,0.37890625,3.890625,3.15625,5.453125,7.78125,1.1171875,-0.12890625,-0.955078125,1.046875
334,3313715,3613715,0.0888061523,-0.662231445,-0.526672363,0.52557373,0.55078125,2.33984375,0.77734375,5.6640625,7.6484375,1.046875,-0.12890625,-0.955078125,1.046875
335,3330403,3630403,0.0844726562,-0.664001465,-0.52532959,0.525390625,0.55078125,2.33984375,0.77734375,5.6640625,7.6484375,1.046875,-0.11328125,-0.5234375,0.609375
336,3343670,3643670,0.0816650391,-0.664672852,-0.524780273,0.52545166,1.0546875,1.484375,-0.6015625,5.8125,7.546875,0.96875,-0.11328125,-0.5234375,0.609375
337,3349290,3649290,0.0799560547,-0.664367676,-0.525024414,0.525878906,1.0546875,1.484375,-0.6015625,5.8125,7.546875,0.96875,-0.28125,0.044921875,0.140625
338,3354340,3654340,0.0790405273,-0.663635254,-0.52557373,0.526428223,-0.01171875,2.2890625,-0.00390625,5.8828125,7.5078125,0.984375,-0.28125,0.044921875,0.140625
339,3370657,3670657,0.0784301758,-0.663330078,-0.525756836,0.526672363,-0.01171875,2.2890625,-0.00390625,5.8828125,7.5078125,0.984375,-0.037109375,-0.06640625,0.08984375
340,3378858,3678858,0.0780029297,-0.663757324,-0.52545166,0.526550293,-0.671875,2.41796875,1.16015625,5.890625,7.4921875,1.0078125,-0.037109375,-0.06640625,0.08984375
341,3388073,3688073,0.0778198242,-0.664550781,-0.524719238,0.526306152,-0.671875,2.41796875,1.16015625,5.890625,7.4921875,1.0078125,0.203125,-0.12890625,0.0625
342,3394447,3694447,0.0780029297,-0.665405273,-0.524047852,0.525878906,-0.42578125,2.03515625,1.06640625,5.9140625,7.4921875,0.984375,0.203125,-0.12890625,0.0625
343,3410976,3710976,0.0783081055,-0.666015625,-0.523742676,0.525268555,-0.42578125,2.03515625,1.06640625,5.9140625,7.4921875,0.984375,0.1171875,-0.103515625,-0.095703125
344,3419834,3719834,0.0786743164,-0.666442871,-0.523864746,0.524597168,-0.15625,2.6015625,1.4453125,5.9140625,7.5,0.953125,0.1171875,-0.103515625,-0.095703125
345,3431577,3731577,0.0791625977,-0.666625977,-0.524353027,0.523864746,-0.15625,2.6015625,1.4453125,5.9140625,7.5,0.953125,-0.009765625,-0.029296875,-0.232421875
346,3435971,3735971,0.0803222656,-0.666320801,-0.525146484,0.523193359,0.31640625,2.265625,1.57421875,5.8984375,7.53125,0.9375,-0.009765625,-0.029296875,-0.232421875
347,3451382,3751382,0.0826416016,-0.665466309,-0.526550293,0.522521973,0.31640625,2.265625,1.57421875,5.8984375,7.53125,0.9375,-0.048828125,0.30859375,-0.634765625
348,3459229,3759229,0.0860595703,-0.663879395,-0.528747559,0.521789551,0.265625,2.40234375,2.01171875,5.8359375,7.5859375,0.9609375,-0.048828125,0.30859375,-0.634765625
349,3469173,3769173,0.0905761719,-0.661376953,-0.532104492,0.520751953,0.265625,2.40234375,2.01171875,5.8359375,7.5859375,0.9609375,-0.296875,0.576171875,-1.18945312
350,3473953,3773953,0.0953979492,-0.65814209,-0.536376953,0.51965332,0.30078125,3.5546875,2.31640625,5.6875,7.6953125,1.0390625,-0.296875,0.576171875,-1.18945312
351,3493757,3793757,0.101196289,-0.653564453,-0.542053223,0.518432617,0.30078125,3.5546875,2.31640625,5.6875,7.6953125,1.0390625,-0.716796875,0.9140625,-1.67773438
352,3502607,3802607,0.107543945,-0.647766113,-0.54901123,0.517150879,0.83984375,3.97265625,2.58203125,5.453125,7.8515625,1.1953125,-0.716796875,0.9140625,-1.67773438
353,3508381,3808381,0.114440918,-0.640686035,-0.557189941,0.515686035,0.83984375,3.97265625,2.58203125,5.453125,7.8515625,1.1953125,-1.26171875,1.23242188,-2.21875
354,3516717,3816717,0.122314453,-0.631713867,-0.567016602,0.514282227,2.2421875,4.1015625,1.7265625,5.125,8.03125,1.4765625,-1.26171875,1.23242188,-2.21875
355,3529565,3829565,0.130981445,-0.621276855,-0.577636719,0.512939453,2.2421875,4.1015625,1.7265625,5.125,8.03125,1.4765625,-1.66992188,1.74609375,-2.68359375
356,3536612,3836612,0.140136719,-0.609985352,-0.588439941,0.51184082,3.57421875,3.62109375,1.51953125,4.671875,8.2421875,1.875,-1.66992188,1.74609375,-2.68359375
357,3549466,3849466,0.150756836,-0.596130371,-0.600952148,0.510620117,3.57421875,3.62109375,1.51953125,4.671875,8.2421875,1.875,-2.08398438,2.22851562,-3.13476562
358,3556609,3856609,0.16204834,-0.580810547,-0.614135742,0.509216309,4.47265625,3.01171875,1.5234375,4.1171875,8.4296875,2.3671875,-2.08398438,2.22851562,-3.13476562
359,3573747,3873747,0.173461914,-0.564697266,-0.627197266,0.507507324,4.47265625,3.01171875,1.5234375,4.1171875,8.4296875,2.3671875,-2.31054688,2.48046875,-3.44335938
360,3581834,3881834,0.185302734,-0.547973633,-0.640014648,0.50567627,5.3984375,2.453125,0.72265625,3.421875,8.5703125,2.9375,-2.31054688,2.48046875,-3.44335938
361,3592160,3892160,0.197753906,-0.530761719,-0.652160645,0.50378418,5.3984375,2.453125,0.72265625,3.421875,8.5703125,2.9375,-2.11132812,2.7265625,-3.45507812
362,3597842,3897842,0.210449219,-0.514221191,-0.662841797,0.50189209,5.16015625,1.0625,0.97265625,2.6640625,8.65625,3.4921875,-2.11132812,2.7265625,-3.45507812
363,3612971,3912971,0.224182129,-0.497253418,-0.672729492,0.49987793,5.16015625,1.0625,0.97265625,2.6640625,8.65625,3.4921875,-1.64648438,2.8515625,-3.25
364,3616979,3916979,0.238098145,-0.480834961,-0.681274414,0.49798584,4.6875,0.88671875,0.7890625,1.875,8.6796875,3.9453125,-1.64648438,2.8515625,-3.25
365,3629114,3929114,0.25189209,-0.465209961,-0.688232422,0.496459961,4.6875,0.88671875,0.7890625,1.875,8.6796875,3.9453125,-1.27148438,2.99804688,-2.88671875
366,3636027,3936027,0.265075684,-0.450622559,-0.693847656,0.495178223,4.37890625,0.93359375,1.04296875,1.109375,8.671875,4.3046875,-1.27148438,2.99804688,-2.88671875
367,3652418,3952418,0.279296875,-0.435180664,-0.699157715,0.493774414,4.37890625,0.93359375,1.04296875,1.109375,8.671875,4.3046875,-1.07421875,3.00976562,-2.71875
368,3660738,3960738,0.29296875,-0.420043945,-0.703735352,0.492431641,3.78125,1.4453125,1.40625,0.3671875,8.6171875,4.5546875,-1.07421875,3.00976562,-2.71875
369,3670185,3970185,0.30645752,-0.404602051,-0.707824707,0.491271973,3.78125,1.4453125,1.40625,0.3671875,8.6171875,4.5546875,-1.15625,3.16601562,-2.61132812
370,3673786,3973786,0.320129395,-0.388671875,-0.711425781,0.490234375,4.0859375,1.9921875,0.8203125,-0.359375,8.53125,4.7578125,-1.15625,3.16601562,-2.61132812
371,3692974,3992974,0.334533691,-0.372070312,-0.714416504,0.489135742,4.0859375,1.9921875,0.8203125,-0.359375,8.53125,4.7578125,-1.02148438,3.35742188,-2.54882812
372,3696973,3996973,0.34942627,-0.355712891,-0.716552734,0.487731934,3.76953125,0.67578125,-0.40234375,-1.1171875,8.390625,4.90625,-1.02148438,3.35742188,-2.54882812
373,3709019,4009019,0.364929199,-0.339904785,-0.717773438,0.485900879,3.76953125,0.67578125,-0.40234375,-1.1171875,8.390625,4.90625,-0.599609375,3.59765625,-2.59375
374,3717875,4017875,0.380126953,-0.325317383,-0.718139648,0.483703613,2.66796875,0.17578125,0.171875,-1.890625,8.2421875,4.9453125,-0.599609375,3.59765625,-2.59375
375,3732119,4032119,0.39642334,-0.310424805,-0.717773438,0.480957031,2.66796875,0.17578125,0.171875,-1.890625,8.2421875,4.9453125,-0.234375,3.55078125,-2.47265625
376,3740356,4040356,0.412353516,-0.296508789,-0.71673584,0.477844238,1.953125,-0.10546875,-0.01953125,-2.6328125,8.1015625,4.8671875,-0.234375,3.55078125,-2.47265625
377,3747820,4047820,0.428283691,-0.283081055,-0.715148926,0.474304199,1.953125,-0.10546875,-0.01953125,-2.6328125,8.1015625,4.8671875,0.05078125,3.47851562,-2.40820312
378,3755811,4055811,0.444091797,-0.269958496,-0.713195801,0.470336914,1.5703125,-0.47265625,-0.18359375,-3.359375,7.96875,4.6875,0.05078125,3.47851562,-2.40820312
379,3772173,4072173,0.459838867,-0.256713867,-0.71105957,0.465942383,1.5703125,-0.47265625,-0.18359375,-3.359375,7.96875,4.6875,0.072265625,3.32421875,-2.3984375
380,3776608,4076608,0.474182129,-0.243774414,-0.708984375,0.461608887,1.57421875,0.11328125,0.16015625,-4.0546875,7.8046875,4.421875,0.072265625,3.32421875,-2.3984375
381,3788956,4088956,0.487976074,-0.229858398,-0.70703125,0.457336426,1.57421875,0.11328125,0.16015625,-4.0546875,7.8046875,4.421875,-0.29296875,3.08789062,-2.34375
382,3797053,4097053,0.500061035,-0.216430664,-0.70526123,0.453552246,2.66796875,0.5546875,-0.05078125,-4.6875,7.59375,4.171875,-0.29296875,3.08789062,-2.34375
383,3814066,4114066,0.512145996,-0.202331543,-0.703186035,0.449707031,2.66796875,0.5546875,-0.05078125,-4.6875,7.59375,4.171875,-0.400390625,2.921875,-2.1953125
384,3815546,4115546,0.523864746,-0.188659668,-0.700866699,0.445861816,2.79296875,-1.76953125,-1.578125,-5.2734375,7.3515625,3.9375,-0.400390625,2.921875,-2.1953125
385,3832548,4132548,0.535217285,-0.17565918,-0.698120117,0.441894531,2.79296875,-1.76953125,-1.578125,-5.2734375,7.3515625,3.9375,-0.23046875,2.8828125,-2.08984375
386,3836537,4136537,0.546203613,-0.163818359,-0.695129395,0.437744141,2.828125,-2.171875,-1.54296875,-5.8046875,7.1015625,3.671875,-0.23046875,2.8828125,-2.08984375
387,3852374,4152374,0.557800293,-0.152038574,-0.69152832,0.433044434,2.828125,-2.171875,-1.54296875,-5.8046875,7.1015625,3.671875,0.060546875,2.765625,-1.89648438
388,3856199,4156199,0.568481445,-0.141418457,-0.687866211,0.428588867,2.8828125,-3,-2.9765625,-6.28125,6.859375,3.34375,0.060546875,2.765625,-1.89648438
389,3870488,4170488,0.579406738,-0.130310059,-0.683776855,0.423950195,2.8828125,-3,-2.9765625,-6.28125,6.859375,3.34375,0.052734375,2.66992188,-1.78320312
390,3876448,4176448,0.588867188,-0.120178223,-0.680114746,0.419799805,2.5390625,-2.3828125,-2.1640625,-6.703125,6.625,2.9921875,0.052734375,2.66992188,-1.78320312
391,3892346,4192346,0.598144531,-0.109130859,-0.676330566,0.415771484,2.5390625,-2.3828125,-2.1640625,-6.703125,6.625,2.9921875,-0.21484375,2.38867188,-1.67578125
392,3901197,4201197,0.605895996,-0.0989379883,-0.673034668,0.412414551,1.78515625,-2.1953125,-1.71484375,-7.0625,6.3984375,2.65625,-0.21484375,2.38867188,-1.67578125
393,3910610,4210610,0.613098145,-0.0888061523,-0.66973877,0.409423828,1.78515625,-2.1953125,-1.71484375,-7.0625,6.3984375,2.65625,-0.3671875,2.08984375,-1.44921875
394,3914207,4214207,0.619812012,-0.078918457,-0.666442871,0.406738281,1.6640625,-2.4609375,-2.015625,-7.359375,6.1640625,2.3828125,-0.3671875,2.08984375,-1.44921875
395,3933103,4233103,0.626037598,-0.069152832,-0.663146973,0.404418945,1.6640625,-2.4609375,-2.015625,-7.359375,6.1640625,2.3828125,-0.47265625,1.8984375,-1.27929688
396,3936741,4236741,0.631530762,-0.0596313477,-0.66003418,0.40246582,1.4609375,-1.6484375,-1.34375,-7.6171875,5.9296875,2.1328125,-0.47265625,1.8984375,-1.27929688
397,3948754,4248754,0.636474609,-0.0505981445,-0.657104492,0.400756836,1.4609375,-1.6484375,-1.34375,-7.6171875,5.9296875,2.1328125,-0.533203125,1.69921875,-1.18164062
398,3956851,4256851,0.641174316,-0.0422363281,-0.65423584,0.398925781,1.52734375,-1.67578125,-1.79296875,-7.8359375,5.7265625,1.9296875,-0.533203125,1.69921875,-1.18164062
399,3973139,4273139,0.64642334,-0.0338134766,-0.651000977,0.39654541,1.52734375,-1.67578125,-1.79296875,-7.8359375,5.7265625,1.9296875,-0.25,1.7421875,-1.14257812
400,3981976,4281976,0.651855469,-0.0260620117,-0.647583008,0.393737793,1.29296875,-2.36328125,-2.6015625,-8.0234375,5.53125,1.703125,-0.25,1.7421875,-1.14257812
401,3992123,4292123,0.657287598,-0.0189208984,-0.644226074,0.390625,1.29296875,-2.36328125,-2.6015625,-8.0234375,5.53125,1.703125,-0.052734375,1.6875,-1.08007812
402,3996452,4296452,0.662414551,-0.0123291016,-0.640930176,0.387695312,1.1953125,-2.375,-2.94921875,-8.1953125,5.3515625,1.4375,-0.052734375,1.6875,-1.08007812
403,4012631,4312631,0.667907715,-0.00543212891,-0.637207031,0.384460449,1.1953125,-2.375,-2.94921875,-8.1953125,5.3515625,1.4375,0.01171875,1.58203125,-0.953125
404,4016664,4316664,0.672424316,6.10351562e-05,-0.634033203,0.381835938,0.8828125,-2.81640625,-3.01953125,-8.34375,5.1796875,1.1640625,0.01171875,1.58203125,-0.953125
405,4029148,4329148,0.677185059,0.00555419922,-0.630493164,0.379211426,0.8828125,-2.81640625,-3.01953125,-8.34375,5.1796875,1.1640625,0.0546875,1.38867188,-0.6953125
406,4034870,4334870,0.68145752,0.00994873047,-0.627197266,0.37701416,0.7265625,-3.48046875,-3.08203125,-8.453125,5.0390625,0.921875,0.0546875,1.38867188,-0.6953125
407,4052388,4352388,0.684997559,0.0134887695,-0.624267578,0.375427246,0.7265625,-3.48046875,-3.08203125,-8.453125,5.0390625,0.921875,0.0390625,1.1015625,-0.404296875
408,4060691,4360691,0.688049316,0.0166015625,-0.621459961,0.374267578,0.6875,-3.65234375,-3.70703125,-8.53125,4.9453125,0.703125,0.0390625,1.1015625,-0.404296875
409,4069437,4369437,0.690368652,0.0192260742,-0.619140625,0.373840332,0.6875,-3.65234375,-3.70703125,-8.53125,4.9453125,0.703125,-0.154296875,0.697265625,-0.193359375
410,4075154,4375154,0.691772461,0.0213012695,-0.61730957,0.374023438,0.7578125,-3.484375,-3.97265625,-8.5625,4.890625,0.546875,-0.154296875,0.697265625,-0.193359375
411,4091524,4391524,0.692443848,0.0222167969,-0.616210938,0.374572754,0.7578125,-3.484375,-3.97265625,-8.5625,4.890625,0.546875,-0.11328125,0.201171875,0.09375
412,4096319,4396319,0.692687988,0.0219726562,-0.615600586,0.375244141,1.30078125,-4.3125,-5.625,-8.5703125,4.875,0.4765625,-0.11328125,0.201171875,0.09375
413,4111366,4411366,0.692626953,0.0204467773,-0.615234375,0.375915527,1.30078125,-4.3125,-5.625,-8.5703125,4.875,0.4765625,0.16796875,-0.14453125,0.376953125
414,4114980,4414980,0.692260742,0.0179443359,-0.615356445,0.376525879,1.1171875,-4.265625,-4.9296875,-8.5390625,4.90625,0.46875,0.16796875,-0.14453125,0.376953125
415,4132349,4432349,0.691101074,0.0145263672,-0.616088867,0.377624512,1.1171875,-4.265625,-4.9296875,-8.5390625,4.90625,0.46875,0.12109375,-0.62890625,0.578125
416,4140699,4440699,0.688842773,0.0108642578,-0.617553711,0.379516602,0.14453125,-2.0078125,-2.66015625,-8.484375,4.984375,0.5,0.12109375,-0.62890625,0.578125
417,4150108,4450108,0.68548584,0.00695800781,-0.619628906,0.382263184,0.14453125,-2.0078125,-2.66015625,-8.484375,4.984375,0.5,-0.1953125,-1.11132812,0.767578125
418,4156445,4456445,0.681152344,0.00213623047,-0.622314453,0.385681152,0.2109375,-1.83984375,-2.6953125,-8.3984375,5.0859375,0.6484375,-0.1953125,-1.11132812,0.767578125
419,4171004,4471004,0.676696777,-0.00347900391,-0.62512207,0.388977051,0.2109375,-1.83984375,-2.6953125,-8.3984375,5.0859375,0.6484375,0.005859375,-1.4609375,1.02929688
420,4174611,4474611,0.672485352,-0.0104980469,-0.627929688,0.391601562,1.01171875,-4.05859375,-5.21875,-8.28125,5.234375,0.875,0.005859375,-1.4609375,1.02929688
421,4190086,4490086,0.668518066,-0.0200805664,-0.63079834,0.393432617,1.01171875,-4.05859375,-5.21875,-8.28125,5.234375,0.875,0.828125,-1.578125,1.35351562
422,4196077,4496077,0.665222168,-0.0307006836,-0.633056641,0.394592285,1.76953125,-5.42578125,-6.1796875,-8.1171875,5.4140625,1.0703125,0.828125,-1.578125,1.35351562
423,4210949,4510949,0.662597656,-0.0416259766,-0.63482666,0.395263672,1.76953125,-5.42578125,-6.1796875,-8.1171875,5.4140625,1.0703125,1.19140625,-1.43359375,1.4609375
424,4218962,4518962,0.659912109,-0.0531005859,-0.636413574,0.395751953,1.3203125,-2.44921875,-2.8125,-7.9375,5.65625,1.1875,1.19140625,-1.43359375,1.4609375
425,4230046,4530046,0.65625,-0.0657348633,-0.638244629,0.397033691,1.3203125,-2.44921875,-2.8125,-7.9375,5.65625,1.1875,0.958984375,-1.70898438,1.73046875
426,4237200,4537200,0.651489258,-0.0775146484,-0.640197754,0.399536133,0.734375,-1.07421875,-1.6875,-7.6953125,5.9296875,1.2890625,0.958984375,-1.70898438,1.73046875
427,4252005,4552005,0.645202637,-0.0891113281,-0.64263916,0.403442383,0.734375,-1.07421875,-1.6875,-7.6953125,5.9296875,1.2890625,0.2734375,-2.08203125,1.96484375
428,4256341,4556341,0.637512207,-0.100402832,-0.645446777,0.408508301,0.5078125,-0.3515625,-1.234375,-7.4296875,6.203125,1.484375,0.2734375,-2.08203125,1.96484375
429,4271879,4571879,0.628417969,-0.112121582,-0.648620605,0.414550781,0.5078125,-0.3515625,-1.234375,-7.4296875,6.203125,1.484375,-0.125,-2.41992188,2.20117188
430,4275498,4575498,0.61932373,-0.123535156,-0.651489258,0.420349121,0.99609375,-2.375,-3.4296875,-7.078125,6.5,1.8046875,-0.125,-2.41992188,2.20117188
431,4289321,4589321,0.609924316,-0.136474609,-0.654052734,0.426147461,0.99609375,-2.375,-3.4296875,-7.078125,6.5,1.8046875,0.2265625,-2.40820312,2.3359375
432,4301479,4601479,0.600891113,-0.150146484,-0.656066895,0.431274414,1.703125,-2.9375,-3.47265625,-6.671875,6.796875,2.1171875,0.2265625,-2.40820312,2.3359375
433,4309496,4609496,0.592895508,-0.163269043,-0.657409668,0.43548584,1.703125,-2.9375,-3.47265625,-6.671875,6.796875,2.1171875,0.5703125,-2.3046875,2.390625
434,4316638,4616638,0.584655762,-0.177307129,-0.65838623,0.43963623,1.84765625,-1.09765625,-1.2578125,-6.2421875,7.1015625,2.3515625,0.5703125,-2.3046875,2.390625
435,4330964,4630964,0.575744629,-0.192138672,-0.659118652,0.444030762,1.84765625,-1.09765625,-1.2578125,-6.2421875,7.1015625,2.3515625,0.595703125,-2.38476562,2.52929688
436,4334560,4634560,0.56652832,-0.206115723,-0.659851074,0.448486328,1.68359375,-0.078125,-0.2421875,-5.7734375,7.421875,2.5234375,0.595703125,-2.38476562,2.52929688
437,4350058,4650058,0.555969238,-0.22052002,-0.660644531,0.453674316,1.68359375,-0.078125,-0.2421875,-5.7734375,7.421875,2.5234375,0.23828125,-2.53320312,2.609375
438,4356035,4656035,0.545043945,-0.234313965,-0.661499023,0.458740234,2.00390625,-0.91015625,-1.1328125,-5.25,7.71875,2.7265625,0.23828125,-2.53320312,2.609375
439,4371291,4671291,0.534118652,-0.247924805,-0.66217041,0.463500977,2.00390625,-0.91015625,-1.1328125,-5.25,7.71875,2.7265625,0.279296875,-2.46484375,2.48046875
440,4379360,4679360,0.524230957,-0.260375977,-0.662475586,0.467468262,2.5703125,-1.8203125,-1.7578125,-4.703125,7.9765625,2.9296875,0.279296875,-2.46484375,2.48046875
441,4389753,4689753,0.51373291,-0.2734375,-0.662536621,0.471496582,2.5703125,-1.8203125,-1.7578125,-4.703125,7.9765625,2.9296875,0.267578125,-2.34765625,2.390625
442,4396894,4696894,0.503356934,-0.285705566,-0.662536621,0.475463867,2.11328125,0.87109375,0.9296875,-4.171875,8.1953125,3.078125,0.267578125,-2.34765625,2.390625
443,4410945,4710945,0.491699219,-0.29876709,-0.662414551,0.479736328,2.11328125,0.87109375,0.9296875,-4.171875,8.1953125,3.078125,0.15625,-2.51367188,2.5703125
444,4416487,4716487,0.479797363,-0.311462402,-0.662109375,0.484191895,2.09375,0.80078125,1.58984375,-3.6171875,8.3828125,3.21875,0.15625,-2.51367188,2.5703125
445,4431243,4731243,0.46685791,-0.324279785,-0.661682129,0.488952637,2.09375,0.80078125,1.58984375,-3.6171875,8.3828125,3.21875,-0.037109375,-2.61132812,2.73242188
446,4434865,4734865,0.453613281,-0.336486816,-0.661132812,0.493835449,2.65625,1.46484375,2.2109375,-2.9921875,8.5625,3.3671875,-0.037109375,-2.61132812,2.73242188
447,4451144,4751144,0.439025879,-0.349182129,-0.660583496,0.498962402,2.65625,1.46484375,2.2109375,-2.9921875,8.5625,3.3671875,-0.2109375,-2.68554688,2.74609375
448,4460127,4760127,0.426025391,-0.360595703,-0.659851074,0.502990723,3.296875,-0.1875,0.3984375,-2.328125,8.6796875,3.53125,-0.2109375,-2.68554688,2.74609375
449,4470298,4770298,0.414245605,-0.372558594,-0.658630371,0.50579834,3.296875,-0.1875,0.3984375,-2.328125,8.6796875,3.53125,0.431640625,-2.28320312,2.17578125
450,4479276,4779276,0.404846191,-0.384033203,-0.656677246,0.507324219,3.61328125,0.40234375,-0.015625,-1.7265625,8.78125,3.6015625,0.431640625,-2.28320312,2.17578125
451,4490364,4790364,0.396118164,-0.39642334,-0.653808594,0.508361816,3.61328125,0.40234375,-0.015625,-1.7265625,8.78125,3.6015625,0.955078125,-1.9921875,2.06054688
452,4497690,4797690,0.387939453,-0.409057617,-0.650268555,0.509155273,3.17578125,1.21875,0.78125,-1.2109375,8.8828125,3.53125,0.955078125,-1.9921875,2.06054688
453,4511501,4811501,0.380065918,-0.421386719,-0.646484375,0.50994873,3.17578125,1.21875,0.78125,-1.2109375,8.8828125,3.53125,1.01171875,-1.88085938,2.08398438
454,4515231,4815231,0.372253418,-0.432250977,-0.643127441,0.510864258,2.31640625,2.421875,2.62109375,-0.6953125,8.984375,3.375,1.01171875,-1.88085938,2.08398438
455,4531205,4831205,0.362609863,-0.442993164,-0.640258789,0.512207031,2.31640625,2.421875,2.62109375,-0.6953125,8.984375,3.375,0.35546875,-2.00390625,2.03710938
456,4540481,4840481,0.352478027,-0.452270508,-0.638244629,0.51361084,1.9375,3.890625,3.14453125,-0.203125,9.046875,3.2734375,0.35546875,-2.00390625,2.03710938
457,4549738,4849738,0.341125488,-0.461608887,-0.636474609,0.515197754,1.9375,3.890625,3.14453125,-0.203125,9.046875,3.2734375,0.048828125,-2.09765625,2.02734375
458,4558332,4858332,0.330627441,-0.47064209,-0.634338379,0.516479492,2.3203125,-0.0078125,0.50390625,0.296875,9.0390625,3.234375,0.048828125,-2.09765625,2.02734375
459,4571544,4871544,0.320739746,-0.481140137,-0.630859375,0.517333984,2.3203125,-0.0078125,0.50390625,0.296875,9.0390625,3.234375,0.8046875,-1.93164062,2.08007812
460,4575271,4875271,0.31262207,-0.492553711,-0.625915527,0.51763916,2.46875,-2.109375,-1.2109375,0.796875,9.03125,3.1484375,0.8046875,-1.93164062,2.08007812
461,4593305,4893305,0.305603027,-0.505554199,-0.619140625,0.51739502,2.46875,-2.109375,-1.2109375,0.796875,9.03125,3.1484375,1.71289062,-1.71875,2.125
462,4597646,4897646,0.299743652,-0.518249512,-0.611816406,0.517028809,2.58203125,-0.875,-1.7578125,1.296875,9.0625,2.8515625,1.71289062,-1.71875,2.125
463,4609576,4909576,0.293823242,-0.531005859,-0.603820801,0.516845703,2.58203125,-0.875,-1.7578125,1.296875,9.0625,2.8515625,1.640625,-1.515625,2.14453125
464,4621821,4921821,0.287109375,-0.542419434,-0.596740723,0.517028809,2.48046875,1.55078125,1.1015625,1.78125,9.0859375,2.484375,1.640625,-1.515625,2.14453125
465,4630129,4930129,0.278930664,-0.552062988,-0.591247559,0.517578125,2.48046875,1.55078125,1.1015625,1.78125,9.0859375,2.484375,0.626953125,-1.74414062,2.20117188
466,4639434,4939434,0.268371582,-0.560852051,-0.586975098,0.518554688,2.6796875,4.609375,3.28125,2.234375,9.0546875,2.21875,0.626953125,-1.74414062,2.20117188
467,4649580,4949580,0.25604248,-0.568725586,-0.583740234,0.519897461,2.6796875,4.609375,3.28125,2.234375,9.0546875,2.21875,-0.21875,-1.9140625,2.2421875
468,4656453,4956453,0.243408203,-0.575927734,-0.580871582,0.521179199,2.1875,2.92578125,1.8359375,2.7265625,8.9375,2.09375,-0.21875,-1.9140625,2.2421875
469,4670911,4970911,0.231933594,-0.582702637,-0.577819824,0.522277832,2.1875,2.92578125,1.8359375,2.7265625,8.9375,2.09375,-0.013671875,-1.7890625,2.15234375
470,4675955,4975955,0.220703125,-0.590393066,-0.573608398,0.523132324,2.4453125,0.453125,0.08203125,3.1953125,8.8046875,2.0078125,-0.013671875,-1.7890625,2.15234375
471,4691922,4991922,0.211853027,-0.597839355,-0.568603516,0.523803711,2.4453125,0.453125,0.08203125,3.1953125,8.8046875,2.0078125,0.67578125,-1.39453125,1.94335938
472,4701230,5001230,0.205078125,-0.605041504,-0.562988281,0.524353027,2.546875,0.25,0.33203125,3.6328125,8.6640625,1.8359375,0.67578125,-1.39453125,1.94335938
473,4712662,5012662,0.199279785,-0.612243652,-0.55670166,0.524902344,2.546875,0.25,0.33203125,3.6328125,8.6640625,1.8359375,0.96484375,-1,1.64648438
474,4717026,5017026,0.194213867,-0.618835449,-0.550720215,0.525390625,1.55078125,2,1.171875,3.9765625,8.5625,1.609375,0.96484375,-1,1.64648438
475,4731059,5031059,0.188964844,-0.624816895,-0.545288086,0.525939941,1.55078125,2,1.171875,3.9765625,8.5625,1.609375,0.583984375,-0.86328125,1.3984375
476,4739077,5039077,0.183776855,-0.629333496,-0.541259766,0.526489258,1.21484375,2.67578125,1.7421875,4.2734375,8.4609375,1.3828125,0.583984375,-0.86328125,1.3984375
477,4750435,5050435,0.178100586,-0.633239746,-0.538085938,0.527038574,1.21484375,2.67578125,1.7421875,4.2734375,8.4609375,1.3828125,0.091796875,-0.84765625,1.203125
478,4758240,5058240,0.172119141,-0.63659668,-0.535644531,0.52746582,0.55078125,1.90234375,1.24609375,4.515625,8.3515625,1.265625,0.091796875,-0.84765625,1.203125
479,4771179,5071179,0.166503906,-0.639404297,-0.533630371,0.527832031,0.55078125,1.90234375,1.24609375,4.515625,8.3515625,1.265625,-0.087890625,-0.744140625,1.01757812
480,4779835,5079835,0.161254883,-0.642028809,-0.531799316,0.528198242,0.609375,1.46875,0.71875,4.7265625,8.25,1.1796875,-0.087890625,-0.744140625,1.01757812
481,4790781,5090781,0.156982422,-0.64440918,-0.529907227,0.528442383,0.609375,1.46875,0.71875,4.7265625,8.25,1.1796875,0.109375,-0.5859375,0.83203125
482,4795830,5095830,0.153503418,-0.646911621,-0.527709961,0.528625488,0.50390625,0.94921875,0.3125,4.90625,8.15625,1.125,0.109375,-0.5859375,0.83203125
483,4811485,5111485,0.150878906,-0.649291992,-0.52545166,0.528747559,0.50390625,0.94921875,0.3125,4.90625,8.15625,1.125,0.3125,-0.404296875,0.62109375
484,4818222,5118222,0.148986816,-0.651489258,-0.523193359,0.528747559,0.34375,1.625,0.515625,5.03125,8.09375,1.0390625,0.3125,-0.404296875,0.62109375
485,4831058,5131058,0.147583008,-0.653564453,-0.520996094,0.528808594,0.34375,1.625,0.515625,5.03125,8.09375,1.0390625,0.333984375,-0.255859375,0.423828125
486,4835840,5135840,0.14666748,-0.655212402,-0.519165039,0.528808594,0.125,2.515625,0.75390625,5.1328125,8.046875,0.953125,0.333984375,-0.255859375,0.423828125
487,4851130,5151130,0.146179199,-0.65625,-0.517883301,0.528930664,0.125,2.515625,0.75390625,5.1328125,8.046875,0.953125,0.18359375,-0.041015625,0.16796875
488,4859719,5159719,0.146362305,-0.656677246,-0.517150879,0.529052734,-0.00390625,2.8828125,1.27734375,5.1875,8.0234375,0.890625,0.18359375,-0.041015625,0.16796875
489,4872267,5172267,0.147094727,-0.656555176,-0.517211914,0.528991699,-0.00390625,2.8828125,1.27734375,5.1875,8.0234375,0.890625,-0.005859375,0.125,-0.197265625
490,4875882,5175882,0.14831543,-0.655578613,-0.518127441,0.528869629,-0.2734375,3.41796875,1.28515625,5.1875,8.0234375,0.8828125,-0.005859375,0.125,-0.197265625
491,4891128,5191128,0.15032959,-0.653625488,-0.520141602,0.528808594,-0.2734375,3.41796875,1.28515625,5.1875,8.0234375,0.8828125,-0.31640625,0.4140625,-0.654296875
492,4896860,5196860,0.153137207,-0.650756836,-0.523132324,0.528564453,-0.08984375,3.90234375,1.60546875,5.1171875,8.078125,0.9453125,-0.31640625,0.4140625,-0.654296875
493,4913008,5213008,0.156555176,-0.647094727,-0.527038574,0.528259277,-0.08984375,3.90234375,1.60546875,5.1171875,8.078125,0.9453125,-0.59765625,0.640625,-1.11132812
494,4915672,5215672,0.16027832,-0.64276123,-0.531616211,0.527832031,0.09765625,4.390625,1.78515625,4.96875,8.1640625,1.0703125,-0.59765625,0.640625,-1.11132812
495,4932615,5232615,0.165100098,-0.637268066,-0.537353516,0.527160645,0.09765625,4.390625,1.78515625,4.96875,8.1640625,1.0703125,-0.779296875,0.8671875,-1.53515625
496,4940355,5240355,0.170715332,-0.631347656,-0.543334961,0.526428223,0.8984375,4.08203125,1.28515625,4.7421875,8.28125,1.265625,-0.779296875,0.8671875,-1.53515625
497,4950493,5250493,0.177856445,-0.623779297,-0.550598145,0.52545166,0.8984375,4.08203125,1.28515625,4.7421875,8.28125,1.265625,-0.98046875,1.25195312,-2.08007812
498,4960083,5260083,0.18548584,-0.615539551,-0.558227539,0.524475098,1.87890625,4.35546875,1.33984375,4.4140625,8.4296875,1.515625,-0.98046875,1.25195312,-2.08007812
499,4971695,5271695,0.194274902,-0.605773926,-0.567077637,0.523193359,1.87890625,4.35546875,1.33984375,4.4140625,8.4296875,1.515625,-1.28320312,1.59179688,-2.63085938
500,4978571,5278571,0.203674316,-0.594726562,-0.576721191,0.521728516,2.66796875,4.56640625,1.83203125,3.96875,8.6015625,1.828125,-1.28320312,1.59179688,-2.63085938
501,4990476,5290476,0.213928223,-0.581848145,-0.587585449,0.520019531,2.66796875,4.56640625,1.83203125,3.96875,8.6015625,1.828125,-1.68945312,1.91015625,-3.11914062
502,4997785,5297785,0.224060059,-0.568359375,-0.598632812,0.518127441,3.5859375,4.74609375,1.51171875,3.3984375,8.765625,2.2265625,-1.68945312,1.91015625,-3.11914062
503,5014306,5314306,0.234802246,-0.552978516,-0.610534668,0.516052246,3.5859375,4.74609375,1.51171875,3.3984375,8.765625,2.2265625,-2.04492188,2.13085938,-3.39453125
504,5022971,5322971,0.245910645,-0.536010742,-0.62298584,0.513916016,4.79296875,4.46875,1.6328125,2.7265625,8.890625,2.6796875,-2.04492188,2.13085938,-3.39453125
505,5030987,5330987,0.256347656,-0.519592285,-0.634155273,0.511962891,4.79296875,4.46875,1.6328125,2.7265625,8.890625,2.6796875,-2.13476562,2.38476562,-3.45507812
506,5037898,5337898,0.26739502,-0.502746582,-0.644714355,0.510009766,5.10546875,3.46484375,1.515625,1.9921875,8.9375,3.1796875,-2.13476562,2.38476562,-3.45507812
507,5051290,5351290,0.279663086,-0.484680176,-0.654968262,0.5078125,5.10546875,3.46484375,1.515625,1.9921875,8.9375,3.1796875,-1.83789062,2.65234375,-3.40625
508,5057049,5357049,0.29284668,-0.46673584,-0.66394043,0.505493164,5.50390625,2.359375,1.1484375,1.2109375,8.9296875,3.625,-1.83789062,2.65234375,-3.40625
509,5070260,5370260,0.30670166,-0.449829102,-0.671264648,0.502990723,5.50390625,2.359375,1.1484375,1.2109375,8.9296875,3.625,-1.19921875,2.96875,-3.3515625
510,5078357,5378357,0.320983887,-0.434265137,-0.676818848,0.500244141,5.59765625,1.15234375,1.04296875,0.390625,8.875,3.9609375,-1.19921875,2.96875,-3.3515625
511,5091637,5391637,0.337219238,-0.418212891,-0.68145752,0.497009277,5.59765625,1.15234375,1.04296875,0.390625,8.875,3.9609375,-0.580078125,3.2265625,-3.2578125
512,5100347,5400347,0.35357666,-0.403076172,-0.684814453,0.493530273,4.65234375,0.09375,1.49609375,-0.4296875,8.8203125,4.1171875,-0.580078125,3.2265625,-3.2578125
513,5112914,5412914,0.370178223,-0.387817383,-0.687438965,0.489868164,4.65234375,0.09375,1.49609375,-0.4296875,8.8203125,4.1171875,-0.384765625,3.26171875,-3.08398438
514,5117960,5417960,0.385986328,-0.372802734,-0.689453125,0.48651123,4.1328125,0.1640625,1.0390625,-1.25,8.75,4.15625,-0.384765625,3.26171875,-3.08398438
515,5130623,5430623,0.401916504,-0.356933594,-0.691101074,0.483154297,4.1328125,0.1640625,1.0390625,-1.25,8.75,4.15625,-0.494140625,3.24609375,-2.875
516,5136639,5436639,0.416992188,-0.341796875,-0.691955566,0.480041504,3.4375,-0.8203125,0.5234375,-2.046875,8.625,4.1328125,-0.494140625,3.24609375,-2.875
517,5151159,5451159,0.431518555,-0.327697754,-0.692016602,0.476989746,3.4375,-0.8203125,0.5234375,-2.046875,8.625,4.1328125,-0.232421875,3.16015625,-2.54492188
518,5157795,5457795,0.446166992,-0.314086914,-0.69128418,0.473632812,2.9296875,-2.58984375,-0.625,-2.765625,8.4765625,4.0546875,-0.232421875,3.16015625,-2.54492188
519,5170078,5470078,0.460510254,-0.301391602,-0.690002441,0.470092773,2.9296875,-2.58984375,-0.625,-2.765625,8.4765625,4.0546875,0.07421875,3.05859375,-2.375
520,5178205,5478205,0.474182129,-0.289550781,-0.688354492,0.466369629,1.70703125,-2.1328125,-1.4921875,-3.421875,8.328125,3.890625,0.07421875,3.05859375,-2.375
521,5191106,5491106,0.487976074,-0.27734375,-0.686462402,0.462341309,1.70703125,-2.1328125,-1.4921875,-3.421875,8.328125,3.890625,0.056640625,2.90820312,-2.28515625
522,5197092,5497092,0.501159668,-0.264831543,-0.684570312,0.458312988,1.54296875,-1.6796875,-1.7265625,-4.0234375,8.1796875,3.6640625,0.056640625,2.90820312,-2.28515625
523,5211243,5511243,0.513061523,-0.252685547,-0.682861328,0.454589844,1.54296875,-1.6796875,-1.7265625,-4.0234375,8.1796875,3.6640625,-0.146484375,2.69335938,-2.21484375
524,5217764,5517764,0.524536133,-0.240356445,-0.681152344,0.450683594,1.1875,-1.17578125,-1.34765625,-4.5859375,7.984375,3.4375,-0.146484375,2.69335938,-2.21484375
525,5231149,5531149,0.535095215,-0.228637695,-0.679504395,0.446838379,1.1875,-1.17578125,-1.34765625,-4.5859375,7.984375,3.4375,-0.16796875,2.39453125,-2.0703125
526,5237132,5537132,0.54486084,-0.217224121,-0.67791748,0.443115234,1.39453125,-1.51171875,-1.43359375,-5.1015625,7.78125,3.21875,-0.16796875,2.39453125,-2.0703125
527,5250073,5550073,0.553833008,-0.205810547,-0.676513672,0.43963623,1.39453125,-1.51171875,-1.43359375,-5.1015625,7.78125,3.21875,-0.36328125,2.1875,-1.95703125
528,5258220,5558220,0.561584473,-0.194946289,-0.675292969,0.436584473,1.34375,-1.24609375,-0.84765625,-5.546875,7.5546875,3.015625,-0.36328125,2.1875,-1.95703125
529,5270695,5570695,0.569274902,-0.18359375,-0.674133301,0.433410645,1.34375,-1.24609375,-0.84765625,-5.546875,7.5546875,3.015625,-0.470703125,1.94140625,-1.83984375
530,5276663,5576663,0.576293945,-0.172668457,-0.672973633,0.430358887,1.6640625,-1.32421875,-1.03515625,-5.9453125,7.328125,2.859375,-0.470703125,1.94140625,-1.83984375
531,5290667,5590667,0.582946777,-0.161804199,-0.671813965,0.427368164,1.6640625,-1.32421875,-1.03515625,-5.9453125,7.328125,2.859375,-0.529296875,1.80273438,-1.734375
532,5296650,5596650,0.588806152,-0.151367188,-0.670776367,0.424804688,1.83203125,-1.6171875,-1.30078125,-6.3046875,7.0859375,2.703125,-0.529296875,1.80273438,-1.734375
533,5310975,5610975,0.594299316,-0.140319824,-0.669799805,0.422485352,1.83203125,-1.6171875,-1.30078125,-6.3046875,7.0859375,2.703125,-0.779296875,1.68945312,-1.67773438
534,5316710,5616710,0.599121094,-0.12890625,-0.668945312,0.420654297,1.6171875,-1.68359375,-0.6796875,-6.625,6.84375,2.578125,-0.779296875,1.68945312,-1.67773438
535,5329882,5629882,0.603088379,-0.118041992,-0.668212891,0.419372559,1.6171875,-1.68359375,-0.6796875,-6.625,6.84375,2.578125,-1.015625,1.52929688,-1.51757812
536,5338104,5638104,0.606811523,-0.10748291,-0.667175293,0.418395996,0.95703125,-1.76953125,-0.546875,-6.921875,6.5859375,2.484375,-1.015625,1.52929688,-1.51757812
537,5351112,5651112,0.610900879,-0.09765625,-0.665710449,0.417236328,0.95703125,-1.76953125,-0.546875,-6.921875,6.5859375,2.484375,-0.625,1.5078125,-1.22265625
538,5356841,5656841,0.615783691,-0.0891723633,-0.663574219,0.415405273,1.12109375,-2.53125,-1.953125,-7.1640625,6.3515625,2.3984375,-0.625,1.5078125,-1.22265625
539,5370518,5670518,0.621154785,-0.08203125,-0.661010742,0.412841797,1.12109375,-2.53125,-1.953125,-7.1640625,6.3515625,2.3984375,-0.017578125,1.6953125,-1.140625
540,5376249,5676249,0.627563477,-0.0750732422,-0.657897949,0.409484863,0.875,-2.0078125,-2.52734375,-7.375,6.171875,2.203125,-0.017578125,1.6953125,-1.140625
541,5390270,5690270,0.634094238,-0.0689086914,-0.654663086,0.405700684,0.875,-2.0078125,-2.52734375,-7.375,6.171875,2.203125,0.33203125,1.72265625,-1.09375
542,5397202,5697202,0.640930176,-0.0631713867,-0.651184082,0.401489258,0.89453125,-2.03515625,-3.125,-7.5859375,6.0078125,1.921875,0.33203125,1.72265625,-1.09375
543,5410688,5710688,0.647766113,-0.0579223633,-0.647583008,0.397094727,0.89453125,-2.03515625,-3.125,-7.5859375,6.0078125,1.921875,0.53125,1.71484375,-1.0234375
544,5419367,5719367,0.65447998,-0.0529174805,-0.643981934,0.392578125,0.09375,-2.34765625,-2.58203125,-7.78125,5.859375,1.609375,0.53125,1.71484375,-1.0234375
545,5432395,5732395,0.660705566,-0.0477294922,-0.640686035,0.388244629,0.09375,-2.34765625,-2.58203125,-7.78125,5.859375,1.609375,0.33984375,1.53320312,-1.04492188
546,5437922,5737922,0.665771484,-0.0424194336,-0.637878418,0.384765625,-0.40234375,-1.5078125,-1.19921875,-7.9375,5.7109375,1.296875,0.33984375,1.53320312,-1.04492188
547,5449870,5749870,0.670227051,-0.0366210938,-0.635314941,0.381835938,-0.40234375,-1.5078125,-1.19921875,-7.9375,5.7109375,1.296875,-0.068359375,1.25585938,-0.94921875
548,5459022,5759022,0.673828125,-0.0310668945,-0.633117676,0.379638672,-0.21484375,-1.96484375,-2.19140625,-8.0859375,5.5546875,1.0625,-0.068359375,1.25585938,-0.94921875
549,5472794,5772794,0.677185059,-0.0256958008,-0.630981445,0.377624512,-0.21484375,-1.96484375,-2.19140625,-8.0859375,5.5546875,1.0625,-0.11328125,1.05664062,-0.77734375
550,5476533,5776533,0.680358887,-0.0212402344,-0.62902832,0.375427246,0.24609375,-2.7421875,-3.3203125,-8.203125,5.4140625,0.890625,-0.11328125,1.05664062,-0.77734375
551,5489483,5789483,0.683898926,-0.0176391602,-0.626953125,0.372741699,0.24609375,-2.7421875,-3.3203125,-8.203125,5.4140625,0.890625,0.275390625,0.986328125,-0.619140625
552,5504411,5804411,0.687561035,-0.0151977539,-0.624694824,0.369873047,0.79296875,-3.77734375,-3.4453125,-8.2890625,5.296875,0.7109375,0.275390625,0.986328125,-0.619140625
553,5513147,5813147,0.691162109,-0.0137939453,-0.622497559,0.366882324,0.79296875,-3.77734375,-3.4453125,-8.2890625,5.296875,0.7109375,0.546875,0.798828125,-0.3671875
554,5516885,5816885,0.694213867,-0.0130615234,-0.620605469,0.364318848,0.85546875,-3.23046875,-3.44140625,-8.3515625,5.2109375,0.515625,0.546875,0.798828125,-0.3671875
555,5530685,5830685,0.696960449,-0.0126953125,-0.618835449,0.362121582,0.85546875,-3.23046875,-3.44140625,-8.3515625,5.2109375,0.515625,0.390625,0.515625,-0.14453125
556,5539305,5839305,0.698852539,-0.012512207,-0.617492676,0.360778809,0.5703125,-2.921875,-2.78125,-8.375,5.171875,0.3515625,0.390625,0.515625,-0.14453125
557,5551488,5851488,0.699768066,-0.0124511719,-0.616760254,0.360229492,0.5703125,-2.921875,-2.78125,-8.375,5.171875,0.3515625,0.064453125,0.140625,0.009765625
558,5557471,5857471,0.699829102,-0.0126342773,-0.616577148,0.360412598,0.5859375,-2.859375,-2.54296875,-8.390625,5.1484375,0.265625,0.064453125,0.140625,0.009765625
559,5570743,5870743,0.69909668,-0.0130004883,-0.616943359,0.36126709,0.5859375,-2.859375,-2.54296875,-8.390625,5.1484375,0.265625,-0.18359375,-0.267578125,0.169921875
560,5582344,5882344,0.697509766,-0.0137939453,-0.617858887,0.362731934,0.33203125,-2.80078125,-2.48046875,-8.3671875,5.1640625,0.28125,-0.18359375,-0.267578125,0.169921875
561,5591909,5891909,0.695495605,-0.0150146484,-0.61907959,0.364440918,0.33203125,-2.80078125,-2.48046875,-8.3671875,5.1640625,0.28125,-0.244140625,-0.623046875,0.375
562,5603775,5903775,0.692749023,-0.0172729492,-0.620788574,0.366638184,0.5,-2.87890625,-2.91015625,-8.34375,5.203125,0.3671875,-0.244140625,-0.623046875,0.375
563,5613245,5913245,0.689880371,-0.0202636719,-0.622680664,0.368713379,0.5,-2.87890625,-2.91015625,-8.34375,5.203125,0.3671875,-0.0859375,-0.927734375,0.626953125
564,5616985,5916985,0.686706543,-0.0244750977,-0.624755859,0.370788574,0.859375,-3.140625,-3.625,-8.28125,5.2734375,0.5078125,-0.0859375,-0.927734375,0.626953125
565,5631639,5931639,0.683227539,-0.0305175781,-0.627075195,0.372802734,0.859375,-3.140625,-3.625,-8.28125,5.2734375,0.5078125,0.330078125,-1.19921875,0.982421875
566,5636683,5936683,0.679992676,-0.0382080078,-0.629272461,0.374389648,2.0546875,-4.52734375,-5.7734375,-8.171875,5.3984375,0.6640625,0.330078125,-1.19921875,0.982421875
567,5651551,5951551,0.677001953,-0.0474243164,-0.631225586,0.375427246,2.0546875,-4.52734375,-5.7734375,-8.171875,5.3984375,0.6640625,0.9140625,-1.34179688,1.32421875
568,5664131,5964131,0.674255371,-0.0573730469,-0.632995605,0.376098633,2.36328125,-5.25390625,-5.87109375,-8.0234375,5.5859375,0.796875,0.9140625,-1.34179688,1.32421875
569,5672892,5972892,0.670715332,-0.0685424805,-0.63494873,0.377197266,2.36328125,-5.25390625,-5.87109375,-8.0234375,5.5859375,0.796875,0.8515625,-1.55664062,1.5234375
570,5678858,5978858,0.66619873,-0.0784301758,-0.637268066,0.379394531,1.51953125,-2.61328125,-2.8671875,-7.828125,5.8203125,0.8984375,0.8515625,-1.55664062,1.5234375
571,5692052,5992052,0.659362793,-0.0883178711,-0.640625,0.383544922,1.51953125,-2.61328125,-2.8671875,-7.828125,5.8203125,0.8984375,-0.11328125,-2.08398438,1.68359375
572,5696838,5996838,0.650695801,-0.0978393555,-0.644775391,0.389038086,0.44921875,-1.0859375,-1.1796875,-7.6015625,6.0546875,1.125,-0.11328125,-2.08398438,1.68359375
573,5711097,6011097,0.640930176,-0.10760498,-0.649230957,0.395141602,0.44921875,-1.0859375,-1.1796875,-7.6015625,6.0546875,1.125,-0.392578125,-2.625,2.03125
574,5717077,6017077,0.630493164,-0.119018555,-0.653625488,0.401428223,0.421875,-3.21875,-2.93359375,-7.3046875,6.3125,1.5,-0.392578125,-2.625,2.03125
575,5732399,6032399,0.620117188,-0.132507324,-0.657348633,0.407165527,0.421875,-3.21875,-2.93359375,-7.3046875,6.3125,1.5,0.33984375,-2.78710938,2.48632812
576,5741586,6041586,0.610656738,-0.147216797,-0.66015625,0.411804199,1.1484375,-4.60546875,-3.96875,-6.921875,6.625,1.8828125,0.33984375,-2.78710938,2.48632812
577,5751750,6051750,0.600952148,-0.16418457,-0.662353516,0.416137695,1.1484375,-4.60546875,-3.96875,-6.921875,6.625,1.8828125,0.90625,-2.72265625,2.70117188
578,5758442,6058442,0.591430664,-0.181030273,-0.664001465,0.420227051,2.328125,-2.89453125,-2.6640625,-6.453125,6.984375,2.1484375,0.90625,-2.72265625,2.70117188
579,5771725,6071725,0.581604004,-0.196899414,-0.665466309,0.424438477,2.328125,-2.89453125,-2.6640625,-6.453125,6.984375,2.1484375,0.59375,-2.65625,2.64453125
580,5778094,6078094,0.570983887,-0.211730957,-0.667114258,0.429077148,1.8203125,-0.7265625,-0.64453125,-5.9453125,7.34375,2.3515625,0.59375,-2.65625,2.64453125
581,5791665,6091665,0.559509277,-0.226501465,-0.668884277,0.433898926,1.8203125,-0.7265625,-0.64453125,-5.9453125,7.34375,2.3515625,0.365234375,-2.85742188,2.72460938
582,5797966,6097966,0.547607422,-0.24206543,-0.670166016,0.438659668,1.6328125,-0.14453125,0.64453125,-5.4140625,7.640625,2.59375,0.365234375,-2.85742188,2.72460938
583,5812058,6112058,0.535766602,-0.259338379,-0.670410156,0.442993164,1.6328125,-0.14453125,0.64453125,-5.4140625,7.640625,2.59375,1.02929688,-2.88671875,3.109375
584,5824530,6124530,0.525085449,-0.278503418,-0.669067383,0.446228027,2.09375,-1.8828125,-0.15625,-4.8046875,7.9609375,2.78125,1.02929688,-2.88671875,3.109375
585,5833234,6133234,0.515380859,-0.299865723,-0.66595459,0.448242188,2.09375,-1.8828125,-0.15625,-4.8046875,7.9609375,2.78125,2.19921875,-2.69335938,3.35742188
586,5836844,6136844,0.506958008,-0.320922852,-0.66192627,0.44934082,3.20703125,-0.640625,-0.57421875,-4.1171875,8.328125,2.7421875,2.19921875,-2.69335938,3.35742188
587,5852419,6152419,0.498291016,-0.341003418,-0.657714844,0.450378418,3.20703125,-0.640625,-0.57421875,-4.1171875,8.328125,2.7421875,1.75976562,-2.33398438,2.94726562
588,5857199,6157199,0.488830566,-0.358032227,-0.65447998,0.452209473,3.04296875,2.12890625,0.8671875,-3.453125,8.6640625,2.5625,1.75976562,-2.33398438,2.94726562
589,5871773,6171773,0.479064941,-0.370117188,-0.653320312,0.454711914,3.04296875,2.12890625,0.8671875,-3.453125,8.6640625,2.5625,0.1328125,-2.11328125,2.21679688
590,5878131,6178131,0.467590332,-0.379882812,-0.653625488,0.458068848,2.35546875,5.52734375,3.54296875,-2.8828125,8.8671875,2.53125,0.1328125,-2.11328125,2.21679688
591,5892408,6192408,0.454772949,-0.389160156,-0.65435791,0.462097168,2.35546875,5.52734375,3.54296875,-2.8828125,8.8671875,2.53125,-0.419921875,-2.27148438,2.36132812
592,5900358,6200358,0.442687988,-0.399169922,-0.653991699,0.465820312,3.2578125,1.1796875,1.08984375,-2.3671875,8.9609375,2.6875,-0.419921875,-2.27148438,2.36132812
593,5911682,6211682,0.432373047,-0.411193848,-0.651611328,0.468322754,3.2578125,1.1796875,1.08984375,-2.3671875,8.9609375,2.6875,0.92578125,-1.90429688,2.3671875
594,5917650,6217650,0.425170898,-0.423156738,-0.647888184,0.469421387,3.171875,-0.80078125,-0.20703125,-1.8203125,9.0625,2.71875,0.92578125,-1.90429688,2.3671875
595,5932996,6232996,0.418518066,-0.437011719,-0.642700195,0.469909668,3.171875,-0.80078125,-0.20703125,-1.8203125,9.0625,2.71875,1.62109375,-1.60351562,2.22265625
596,5937796,6237796,0.41229248,-0.450195312,-0.637390137,0.470214844,2.10546875,1.17578125,0.984375,-1.328125,9.1953125,2.5234375,1.62109375,-1.60351562,2.22265625
597,5952681,6252681,0.405334473,-0.462341309,-0.632629395,0.47088623,2.10546875,1.17578125,0.984375,-1.328125,9.1953125,2.5234375,1.0390625,-1.54492188,2.14257812
598,5958207,6258207,0.397277832,-0.472412109,-0.629211426,0.472351074,2.04296875,3.25,2.890625,-0.84375,9.3046875,2.3046875,1.0390625,-1.54492188,2.14257812
599,5972804,6272804,0.386962891,-0.480834961,-0.627441406,0.474731445,2.04296875,3.25,2.890625,-0.84375,9.3046875,2.3046875,-0.2578125,-1.77539062,2.08007812
600,5981200,6281200,0.375183105,-0.487548828,-0.62713623,0.477722168,2.38671875,4.13671875,3.21875,-0.3828125,9.3359375,2.2421875,-0.2578125,-1.77539062,2.08007812
601,5991341,6291341,0.361633301,-0.493774414,-0.627502441,0.481262207,2.38671875,4.13671875,3.21875,-0.3828125,9.3359375,2.2421875,-0.8671875,-2.00585938,2.22460938
602,5997304,6297304,0.347900391,-0.500427246,-0.627502441,0.484558105,2.4375,-0.47265625,0.4453125,0.1015625,9.3125,2.375,-0.8671875,-2.00585938,2.22460938
603,6012437,6312437,0.335021973,-0.508300781,-0.626159668,0.487182617,2.4375,-0.47265625,0.4453125,0.1015625,9.3125,2.375,-0.0625,-2.00585938,2.30664062
604,6017220,6317220,0.323120117,-0.517883301,-0.623046875,0.489013672,2.87109375,-2,-1.19921875,0.625,9.265625,2.4453125,-0.0625,-2.00585938,2.30664062
605,6032068,6332068,0.313354492,-0.528381348,-0.618286133,0.490234375,2.87109375,-2,-1.19921875,0.625,9.265625,2.4453125,1.02539062,-1.78320312,2.37109375
606,6038045,6338045,0.304504395,-0.539855957,-0.611999512,0.491149902,3.48828125,-2.00390625,-1.109375,1.15625,9.234375,2.3203125,1.02539062,-1.78320312,2.37109375
607,6052548,6352548,0.296508789,-0.55078125,-0.605407715,0.4921875,3.48828125,-2.00390625,-1.109375,1.15625,9.234375,2.3203125,1.15039062,-1.48242188,2.296875
608,6061184,6361184,0.288208008,-0.560668945,-0.599182129,0.493530273,3.59375,0.5,0.9921875,1.6640625,9.21875,2.0546875,1.15039062,-1.48242188,2.296875
609,6072502,6372502,0.278625488,-0.569213867,-0.594055176,0.495483398,3.59375,0.5,0.9921875,1.6640625,9.21875,2.0546875,0.2578125,-1.50195312,2.33398438
610,6077285,6377285,0.267700195,-0.575927734,-0.590576172,0.49786377,3.03515625,4.1640625,3.44921875,2.1484375,9.15625,1.859375,0.2578125,-1.50195312,2.33398438
611,6092598,6392598,0.254272461,-0.581970215,-0.588195801,0.500671387,3.03515625,4.1640625,3.44921875,2.1484375,9.15625,1.859375,-0.673828125,-1.75976562,2.4296875
612,6099759,6399759,0.239746094,-0.587524414,-0.586303711,0.503540039,2.76953125,2.94921875,1.6796875,2.640625,9.03125,1.828125,-0.673828125,-1.75976562,2.4296875
613,6112659,6412659,0.226135254,-0.592773438,-0.584228516,0.506103516,2.76953125,2.94921875,1.6796875,2.640625,9.03125,1.828125,-0.564453125,-1.70117188,2.34570312
614,6117442,6417442,0.213378906,-0.598266602,-0.581542969,0.508361816,2.5390625,0.7890625,-0.7109375,3.140625,8.8515625,1.84375,-0.564453125,-1.70117188,2.34570312
615,6133176,6433176,0.202270508,-0.603820801,-0.578125,0.510192871,2.5390625,0.7890625,-0.7109375,3.140625,8.8515625,1.84375,-0.02734375,-1.4140625,2.08007812
616,6141198,6441198,0.19317627,-0.60925293,-0.574157715,0.51171875,2.38671875,0.48828125,-0.12109375,3.6015625,8.6953125,1.7890625,-0.02734375,-1.4140625,2.08007812
617,6152517,6452517,0.185119629,-0.61517334,-0.569335938,0.512939453,2.38671875,0.48828125,-0.12109375,3.6015625,8.6953125,1.7890625,0.4921875,-1.06445312,1.68945312
618,6157297,6457297,0.179077148,-0.620544434,-0.56463623,0.51385498,1.671875,0.6953125,0.51171875,3.96875,8.5625,1.65625,0.4921875,-1.06445312,1.68945312
619,6172432,6472432,0.17376709,-0.625671387,-0.559936523,0.514587402,1.671875,0.6953125,0.51171875,3.96875,8.5625,1.65625,0.560546875,-0.783203125,1.31445312
620,6177253,6477253,0.168823242,-0.630126953,-0.555786133,0.515319824,1.15234375,2.30859375,0.8359375,4.2578125,8.4453125,1.484375,0.560546875,-0.783203125,1.31445312
621,6193896,6493896,0.164001465,-0.633544922,-0.552734375,0.515991211,1.15234375,2.30859375,0.8359375,4.2578125,8.4453125,1.484375,0.11328125,-0.689453125,1.08398438
622,6197638,6497638,0.159118652,-0.635925293,-0.550720215,0.516723633,0.69921875,3.28125,1,4.484375,8.3515625,1.359375,0.11328125,-0.689453125,1.08398438
623,6213054,6513054,0.153503418,-0.637756348,-0.549438477,0.51751709,0.69921875,3.28125,1,4.484375,8.3515625,1.359375,-0.314453125,-0.611328125,0.91015625
624,6221681,6521681,0.1484375,-0.63885498,-0.548828125,0.518249512,0.73828125,2.80078125,1.23046875,4.671875,8.2578125,1.3203125,-0.314453125,-0.611328125,0.91015625
625,6232129,6532129,0.143493652,-0.639709473,-0.548583984,0.518920898,0.73828125,2.80078125,1.23046875,4.671875,8.2578125,1.3203125,-0.388671875,-0.474609375,0.681640625
626,6242230,6542230,0.139587402,-0.640319824,-0.548339844,0.519470215,0.5546875,2.390625,0.9140625,4.8203125,8.171875,1.328125,-0.388671875,-0.474609375,0.681640625
627,6252717,6552717,0.136474609,-0.640808105,-0.548095703,0.519897461,0.5546875,2.390625,0.9140625,4.8203125,8.171875,1.328125,-0.19140625,-0.2734375,0.412109375
628,6259446,6559446,0.134277344,-0.641174316,-0.547912598,0.520263672,0.0703125,2.26171875,0.40234375,4.921875,8.109375,1.34375,-0.19140625,-0.2734375,0.412109375
629,6273094,6573094,0.133056641,-0.641113281,-0.547973633,0.520568848,0.0703125,2.26171875,0.40234375,4.921875,8.109375,1.34375,-0.13671875,-0.044921875,0.115234375
630,6281963,6581963,0.13269043,-0.640808105,-0.548278809,0.520690918,-0.109375,2.20703125,0.28125,4.984375,8.0859375,1.3515625,-0.13671875,-0.044921875,0.115234375
631,6294076,6594076,0.133239746,-0.640136719,-0.548950195,0.520690918,-0.109375,2.20703125,0.28125,4.984375,8.0859375,1.3515625,-0.0859375,0.166015625,-0.25
632,6303181,6603181,0.134643555,-0.639099121,-0.549926758,0.520568848,-0.0234375,2.734375,0.41015625,4.9765625,8.09375,1.375,-0.0859375,0.166015625,-0.25
633,6312828,6612828,0.13659668,-0.637512207,-0.551391602,0.520446777,-0.0234375,2.734375,0.41015625,4.9765625,8.09375,1.375,-0.185546875,0.3515625,-0.517578125
634,6321939,6621939,0.138977051,-0.635498047,-0.553405762,0.520202637,0.23046875,3.1171875,1.46484375,4.9140625,8.1328125,1.4296875,-0.185546875,0.3515625,-0.517578125
635,6334694,6634694,0.141601562,-0.632995605,-0.555847168,0.519897461,0.23046875,3.1171875,1.46484375,4.9140625,8.1328125,1.4296875,-0.365234375,0.478515625,-0.7578125
636,6339004,6639004,0.144470215,-0.629943848,-0.558959961,0.51953125,0.5,4.12890625,2.10546875,4.796875,8.1953125,1.515625,-0.365234375,0.478515625,-0.7578125
637,6355180,6655180,0.148071289,-0.625671387,-0.563293457,0.518920898,0.5,4.12890625,2.10546875,4.796875,8.1953125,1.515625,-0.69921875,0.6640625,-1.15039062
638,6362368,6662368,0.151916504,-0.620788574,-0.56829834,0.518249512,0.51171875,4.3203125,1.96484375,4.6328125,8.2734375,1.65625,-0.69921875,0.6640625,-1.15039062
639,6371661,6671661,0.156921387,-0.614257812,-0.574890137,0.517211914,0.51171875,4.3203125,1.96484375,4.6328125,8.2734375,1.65625,-1.04882812,0.9609375,-1.66992188
640,6385108,6685108,0.162597656,-0.606994629,-0.58203125,0.516052246,1.16015625,3.98828125,2.09375,4.3671875,8.375,1.875,-1.04882812,0.9609375,-1.66992188
641,6392427,6692427,0.169677734,-0.598510742,-0.590087891,0.514587402,1.16015625,3.98828125,2.09375,4.3671875,8.375,1.875,-1.20507812,1.34570312,-2.25585938
642,6400618,6700618,0.17755127,-0.589538574,-0.598144531,0.513000488,1.7265625,3.9375,1.98828125,3.9921875,8.5,2.171875,-1.20507812,1.34570312,-2.25585938
643,6415498,6715498,0.187133789,-0.578796387,-0.60723877,0.511108398,1.7265625,3.9375,1.98828125,3.9921875,8.5,2.171875,-1.31640625,1.765625,-2.6953125
644,6419509,6719509,0.19708252,-0.567382812,-0.616333008,0.509338379,3.16796875,4.7578125,2.49609375,3.5078125,8.640625,2.5078125,-1.31640625,1.765625,-2.6953125
645,6433144,6733144,0.207885742,-0.554077148,-0.626281738,0.507568359,3.16796875,4.7578125,2.49609375,3.5078125,8.640625,2.5078125,-1.65429688,2.12890625,-2.96679688
646,6441995,6741995,0.218994141,-0.539428711,-0.636535645,0.50592041,4,4.9140625,2.6875,2.90625,8.75,2.890625,-1.65429688,2.12890625,-2.96679688
647,6455733,6755733,0.230102539,-0.524169922,-0.64642334,0.504455566,4,4.9140625,2.6875,2.90625,8.75,2.890625,-1.86328125,2.47265625,-3.11132812
648,6464698,6764698,0.241882324,-0.508483887,-0.655700684,0.503051758,4.79296875,2.8203125,1.24609375,2.2265625,8.8125,3.3359375,-1.86328125,2.47265625,-3.11132812
649,6475595,6775595,0.254943848,-0.492492676,-0.66394043,0.501586914,4.79296875,2.8203125,1.24609375,2.2265625,8.8125,3.3359375,-1.46875,2.95898438,-3.234375
650,6482924,6782924,0.269897461,-0.475708008,-0.671508789,0.49987793,5.17578125,1.234375,0.73046875,1.5,8.828125,3.734375,-1.46875,2.95898438,-3.234375
651,6492472,6792472,0.286315918,-0.458374023,-0.678222656,0.497924805,5.17578125,1.234375,0.73046875,1.5,8.828125,3.734375,-1.08789062,3.34375,-3.31445312
652,6499850,6799850,0.302185059,-0.442016602,-0.68359375,0.495910645,3.98046875,1.09765625,1.26953125,0.6640625,8.8125,4.0390625,-1.08789062,3.34375,-3.31445312
653,6512465,6812465,0.318908691,-0.424865723,-0.688598633,0.493652344,3.98046875,1.09765625,1.26953125,0.6640625,8.8125,4.0390625,-0.97265625,3.48632812,-3.29882812
654,6520600,6820600,0.3359375,-0.407226562,-0.692932129,0.491149902,3.4609375,1.84375,1.48828125,-0.1953125,8.7578125,4.2421875,-0.97265625,3.48632812,-3.29882812
655,6533221,6833221,0.352416992,-0.390258789,-0.696228027,0.488586426,3.4609375,1.84375,1.48828125,-0.1953125,8.7578125,4.2421875,-0.748046875,3.42773438,-3.02929688
656,6542025,6842025,0.368164062,-0.374450684,-0.698730469,0.485839844,2.4140625,0.296875,0.3671875,-1.0625,8.65625,4.3671875,-0.748046875,3.42773438,-3.02929688
657,6553336,6853336,0.384033203,-0.358703613,-0.700683594,0.482543945,2.4140625,0.296875,0.3671875,-1.0625,8.65625,4.3671875,-0.52734375,3.359375,-3.015625
658,6562627,6862627,0.400146484,-0.342651367,-0.702331543,0.47869873,2.51953125,0.26953125,0.07421875,-1.859375,8.53125,4.390625,-0.52734375,3.359375,-3.015625
659,6572188,6872188,0.414672852,-0.327758789,-0.703674316,0.47479248,2.51953125,0.26953125,0.07421875,-1.859375,8.53125,4.390625,-0.533203125,3.25195312,-3.06054688
660,6578171,6878171,0.429443359,-0.311889648,-0.70501709,0.470397949,1.80859375,0.28125,0.7421875,-2.640625,8.3671875,4.3359375,-0.533203125,3.25195312,-3.06054688
661,6596494,6896494,0.443725586,-0.296081543,-0.705932617,0.465881348,1.80859375,0.28125,0.7421875,-2.640625,8.3671875,4.3359375,-0.513671875,3.01367188,-2.83789062
662,6603344,6903344,0.457458496,-0.281005859,-0.706359863,0.461364746,2.34375,-1.1875,0.17578125,-3.40625,8.1484375,4.25,-0.513671875,3.01367188,-2.83789062
663,6614765,6914765,0.470092773,-0.267211914,-0.706298828,0.456970215,2.34375,-1.1875,0.17578125,-3.40625,8.1484375,4.25,-0.345703125,2.90429688,-2.65039062
664,6625090,6925090,0.482971191,-0.253173828,-0.705749512,0.452270508,2.52734375,-1.46484375,-0.86328125,-4.0859375,7.9296875,4.1015625,-0.345703125,2.90429688,-2.65039062
665,6634634,6934634,0.495605469,-0.239257812,-0.704772949,0.447692871,2.52734375,-1.46484375,-0.86328125,-4.0859375,7.9296875,4.1015625,-0.341796875,2.83789062,-2.44921875
666,6640797,6940797,0.507141113,-0.226257324,-0.703491211,0.443481445,3.00390625,-1.79296875,-0.7109375,-4.71875,7.6796875,3.9140625,-0.341796875,2.83789062,-2.44921875
667,6651071,6951071,0.518798828,-0.21307373,-0.701782227,0.439208984,3.00390625,-1.79296875,-0.7109375,-4.71875,7.6796875,3.9140625,-0.294921875,2.69335938,-2.1953125
668,6658973,6958973,0.529663086,-0.200744629,-0.699768066,0.435241699,2.87890625,-2.8828125,-1.671875,-5.28125,7.4296875,3.6875,-0.294921875,2.69335938,-2.1953125
669,6670976,6970976,0.541015625,-0.188232422,-0.697265625,0.430908203,2.87890625,-2.8828125,-1.671875,-5.28125,7.4296875,3.6875,-0.140625,2.61328125,-2.01757812
670,6681488,6981488,0.551025391,-0.177490234,-0.694702148,0.427001953,2.6875,-2.6328125,-1.38671875,-5.78125,7.1796875,3.4375,-0.140625,2.61328125,-2.01757812
671,6692672,6992672,0.561157227,-0.166564941,-0.691772461,0.422851562,2.6875,-2.6328125,-1.38671875,-5.78125,7.1796875,3.4375,-0.0859375,2.40625,-1.81640625
672,6701223,7001223,0.570556641,-0.156188965,-0.688903809,0.418945312,2.58984375,-2.10546875,-2.64453125,-6.21875,6.9609375,3.1640625,-0.0859375,2.40625,-1.81640625
673,6710873,7010873,0.579284668,-0.14630127,-0.685913086,0.415405273,2.58984375,-2.10546875,-2.64453125,-6.21875,6.9609375,3.1640625,-0.146484375,2.20703125,-1.57226562
674,6720485,7020485,0.587097168,-0.137207031,-0.683044434,0.412231445,2.65234375,-1.8515625,-2.25390625,-6.5859375,6.7421875,2.890625,-0.146484375,2.20703125,-1.57226562
675,6732480,7032480,0.594787598,-0.128112793,-0.680114746,0.408996582,2.65234375,-1.8515625,-2.25390625,-6.5859375,6.7421875,2.890625,-0.12109375,1.97265625,-1.43945312
676,6738207,7038207,0.601989746,-0.119567871,-0.677246094,0.405761719,2.34375,-1.5703125,-2.21875,-6.890625,6.5390625,2.625,-0.12109375,1.97265625,-1.43945312
677,6751701,7051701,0.608459473,-0.11138916,-0.674621582,0.402770996,2.34375,-1.5703125,-2.21875,-6.890625,6.5390625,2.625,-0.18359375,1.74414062,-1.296875
678,6760490,7060490,0.614379883,-0.10357666,-0.672119141,0.400085449,2.109375,-1.48046875,-2.25390625,-7.15625,6.3359375,2.390625,-0.18359375,1.74414062,-1.296875
679,6771972,7071972,0.619812012,-0.0962524414,-0.669677734,0.397644043,2.109375,-1.48046875,-2.25390625,-7.15625,6.3359375,2.390625,-0.1875,1.484375,-1.09960938
680,6785779,7085779,0.624572754,-0.0895996094,-0.667480469,0.395385742,1.9140625,-1.5,-1.97265625,-7.3828125,6.1640625,2.1875,-0.1875,1.484375,-1.09960938
681,6795082,7095082,0.628967285,-0.0834350586,-0.665344238,0.393371582,1.9140625,-1.5,-1.97265625,-7.3828125,6.1640625,2.1875,-0.1796875,1.2421875,-0.892578125
682,6801624,7101624,0.6328125,-0.0780639648,-0.663391113,0.391662598,1.62890625,-2.00390625,-2.359375,-7.5546875,6.015625,2,-0.1796875,1.2421875,-0.892578125
683,6813447,7113447,0.636657715,-0.0727539062,-0.661254883,0.390014648,1.62890625,-2.00390625,-2.359375,-7.5546875,6.015625,2,-0.1484375,1.10546875,-0.7421875
684,6818500,7118500,0.639831543,-0.0680541992,-0.659423828,0.38873291,1.0703125,-1.7578125,-1.66796875,-7.6875,5.8828125,1.84375,-0.1484375,1.10546875,-0.7421875
685,6831756,7131756,0.64263916,-0.063293457,-0.657775879,0.387756348,1.0703125,-1.7578125,-1.66796875,-7.6875,5.8828125,1.84375,-0.3046875,0.8828125,-0.599609375
686,6839212,7139212,0.645019531,-0.0585327148,-0.65612793,0.387329102,0.84375,-1.41015625,-1.62109375,-7.8046875,5.765625,1.71875,-0.3046875,0.8828125,-0.599609375
687,6854064,7154064,0.647033691,-0.0540161133,-0.654541016,0.387329102,0.84375,-1.41015625,-1.62109375,-7.8046875,5.765625,1.71875,-0.4375,0.7890625,-0.447265625
688,6862417,7162417,0.648620605,-0.049987793,-0.653076172,0.387634277,0.578125,-1.27734375,-1.2265625,-7.8828125,5.671875,1.6328125,-0.4375,0.7890625,-0.447265625
689,6872041,7172041,0.650146484,-0.046081543,-0.651550293,0.388183594,0.578125,-1.27734375,-1.2265625,-7.8828125,5.671875,1.6328125,-0.41015625,0.6796875,-0.294921875
690,6880607,7180607,0.651672363,-0.0426025391,-0.649963379,0.38861084,0.140625,-1.24609375,-1.578125,-7.9453125,5.6015625,1.5625,-0.41015625,0.6796875,-0.294921875
691,6894485,7194485,0.653442383,-0.0396118164,-0.64831543,0.388793945,0.140625,-1.24609375,-1.578125,-7.9453125,5.6015625,1.5625,-0.201171875,0.673828125,-0.244140625
692,6898217,7198217,0.655212402,-0.0371704102,-0.64666748,0.388793945,-0.1171875,-1.15234375,-1.66015625,-7.9921875,5.546875,1.4921875,-0.201171875,0.673828125,-0.244140625
693,6912363,7212363,0.657165527,-0.0347900391,-0.644897461,0.38861084,-0.1171875,-1.15234375,-1.66015625,-7.9921875,5.546875,1.4921875,-0.068359375,0.666015625,-0.19140625
694,6920628,7220628,0.659240723,-0.0328979492,-0.643066406,0.388305664,-0.42578125,-1.6875,-1.875,-8.03125,5.5078125,1.3984375,-0.068359375,0.666015625,-0.19140625
695,6934911,7234911,0.661254883,-0.0314331055,-0.641235352,0.388000488,-0.42578125,-1.6875,-1.875,-8.03125,5.5078125,1.3984375,0.0390625,0.58984375,-0.064453125
696,6943565,7243565,0.663024902,-0.030456543,-0.639465332,0.387939453,-0.39453125,-2.1640625,-1.88671875,-8.0625,5.484375,1.296875,0.0390625,0.58984375,-0.064453125
697,6952286,7252286,0.664916992,-0.0299072266,-0.637512207,0.388000488,-0.39453125,-2.1640625,-1.88671875,-8.0625,5.484375,1.296875,0.107421875,0.5234375,0.10546875
698,6960622,7260622,0.666748047,-0.0299682617,-0.635498047,0.388122559,-0.078125,-3.3203125,-2.359375,-8.0703125,5.4921875,1.1953125,0.107421875,0.5234375,0.10546875
699,6974173,7274173,0.668457031,-0.0308837891,-0.633544922,0.388366699,-0.078125,-3.3203125,-2.359375,-8.0703125,5.4921875,1.1953125,0.275390625,0.392578125,0.365234375
700,6979792,7279792,0.66998291,-0.0325927734,-0.631591797,0.388793945,0.3671875,-3.97265625,-3.37890625,-8.0546875,5.53125,1.1015625,0.275390625,0.392578125,0.365234375
701,6994084,7294084,0.671447754,-0.0352172852,-0.629516602,0.389404297,0.3671875,-3.97265625,-3.37890625,-8.0546875,5.53125,1.1015625,0.404296875,0.193359375,0.625
702,7000105,7300105,0.672485352,-0.0385742188,-0.627746582,0.390136719,0.37890625,-4.1640625,-4.625,-7.9921875,5.609375,1.0078125,0.404296875,0.193359375,0.625
703,7014547,7314547,0.673278809,-0.04296875,-0.626098633,0.390991211,0.37890625,-4.1640625,-4.625,-7.9921875,5.609375,1.0078125,0.515625,-0.095703125,0.84375
704,7023645,7323645,0.673339844,-0.0477294922,-0.624938965,0.392089844,-0.08203125,-3.8671875,-4.25,-7.9140625,5.734375,0.9375,0.515625,-0.095703125,0.84375
705,7032384,7332384,0.672668457,-0.0530395508,-0.624328613,0.393676758,-0.08203125,-3.8671875,-4.25,-7.9140625,5.734375,0.9375,0.3359375,-0.484375,0.958984375
706,7041818,7341818,0.671081543,-0.0584716797,-0.624267578,0.395690918,-0.58203125,-2.8984375,-2.9765625,-7.796875,5.875,0.9296875,0.3359375,-0.484375,0.958984375
707,7052543,7352543,0.668701172,-0.0642700195,-0.624755859,0.398071289,-0.58203125,-2.8984375,-2.9765625,-7.796875,5.875,0.9296875,0.1875,-0.884765625,1.08398438
708,7059481,7359481,0.665771484,-0.0703735352,-0.625610352,0.40045166,-0.4453125,-3.12109375,-3.31640625,-7.6640625,6.0234375,1,0.1875,-0.884765625,1.08398438
709,7073315,7373315,0.66229248,-0.0779418945,-0.626831055,0.402954102,-0.4453125,-3.12109375,-3.31640625,-7.6640625,6.0234375,1,0.365234375,-1.16210938,1.24804688
710,7079131,7379131,0.658996582,-0.0856933594,-0.627990723,0.404968262,0.4140625,-3.72265625,-3.43359375,-7.4921875,6.203125,1.1171875,0.365234375,-1.16210938,1.24804688
711,7092965,7392965,0.655395508,-0.0948486328,-0.629211426,0.406860352,0.4140625,-3.72265625,-3.43359375,-7.4921875,6.203125,1.1171875,0.6015625,-1.30273438,1.40429688
712,7106044,7406044,0.651672363,-0.104248047,-0.630310059,0.408813477,0.640625,-3.53515625,-2.66015625,-7.296875,6.3984375,1.2265625,0.6015625,-1.30273438,1.40429688
713,7114104,7414104,0.647583008,-0.113769531,-0.631469727,0.411010742,0.640625,-3.53515625,-2.66015625,-7.296875,6.3984375,1.2265625,0.5,-1.4375,1.52539062
714,7120523,7420523,0.642578125,-0.123352051,-0.632873535,0.413879395,0.7890625,-2.18359375,-1.12890625,-7.0625,6.6171875,1.34375,0.5,-1.4375,1.52539062
715,7132442,7432442,0.637023926,-0.132324219,-0.634460449,0.417358398,0.7890625,-2.18359375,-1.12890625,-7.0625,6.6171875,1.34375,0.09765625,-1.66796875,1.71289062
716,7139379,7439379,0.630737305,-0.141357422,-0.636047363,0.421508789,1.0390625,-2.08984375,-1.44140625,-6.8125,6.828125,1.5,0.09765625,-1.66796875,1.71289062
717,7154001,7454001,0.623840332,-0.150939941,-0.637451172,0.426208496,1.0390625,-2.08984375,-1.44140625,-6.8125,6.828125,1.5,-0.015625,-1.69140625,1.87890625
718,7159223,7459223,0.616699219,-0.161071777,-0.638671875,0.431091309,1.15625,-1.77734375,-0.46484375,-6.5078125,7.0546875,1.7109375,-0.015625,-1.69140625,1.87890625
719,7174081,7474081,0.609741211,-0.171630859,-0.639526367,0.43560791,1.15625,-1.77734375,-0.46484375,-6.5078125,7.0546875,1.7109375,0.208984375,-1.79492188,2.109375
720,7182623,7482623,0.602539062,-0.182800293,-0.640014648,0.440368652,1.1015625,-1.8359375,-0.58984375,-6.1484375,7.3046875,1.9140625,0.208984375,-1.79492188,2.109375
721,7193129,7493129,0.595825195,-0.193054199,-0.640197754,0.444824219,1.1015625,-1.8359375,-0.58984375,-6.1484375,7.3046875,1.9140625,0.169921875,-1.70117188,2.15820312
722,7200205,7500205,0.588500977,-0.203857422,-0.640380859,0.449523926,1.30078125,-0.9765625,0.2421875,-5.7734375,7.5546875,2.078125,0.169921875,-1.70117188,2.15820312
723,7214071,7514071,0.580810547,-0.214538574,-0.640563965,0.454223633,1.30078125,-0.9765625,0.2421875,-5.7734375,7.5546875,2.078125,0.0859375,-1.74023438,2.11132812
724,7218968,7518968,0.572937012,-0.224853516,-0.640563965,0.45916748,1.65234375,-0.25390625,-0.609375,-5.359375,7.7890625,2.2421875,0.0859375,-1.74023438,2.11132812
725,7234302,7534302,0.565612793,-0.233703613,-0.64050293,0.463867188,1.65234375,-0.25390625,-0.609375,-5.359375,7.7890625,2.2421875,-0.130859375,-1.60546875,2.06640625
726,7240714,7540714,0.557006836,-0.243591309,-0.640380859,0.469360352,1.859375,1.12109375,0.44921875,-4.953125,7.984375,2.40625,-0.130859375,-1.60546875,2.06640625
727,7254248,7554248,0.549072266,-0.252624512,-0.640136719,0.474304199,1.859375,1.12109375,0.44921875,-4.953125,7.984375,2.40625,-0.109375,-1.63476562,2.11914062
728,7262784,7562784,0.54107666,-0.262145996,-0.639404297,0.479187012,1.69921875,0.12890625,0.046875,-4.5234375,8.171875,2.578125,-0.109375,-1.63476562,2.11914062
729,7273298,7573298,0.533996582,-0.27142334,-0.638244629,0.483581543,1.69921875,0.12890625,0.046875,-4.5234375,8.171875,2.578125,0.1875,-1.453125,2.125
730,7279221,7579221,0.527099609,-0.28137207,-0.63659668,0.487609863,1.35546875,0.5390625,1.38671875,-4.1015625,8.3359375,2.6953125,0.1875,-1.453125,2.125
731,7294441,7594441,0.519836426,-0.292053223,-0.63470459,0.491577148,1.35546875,0.5390625,1.38671875,-4.1015625,8.3359375,2.6953125,0.333984375,-1.52539062,2.20703125
732,7299351,7599351,0.512695312,-0.302062988,-0.6328125,0.495483398,1.17578125,0.32421875,0.7890625,-3.65625,8.515625,2.7578125,0.333984375,-1.52539062,2.20703125
733,7314732,7614732,0.505004883,-0.311462402,-0.631103516,0.499633789,1.17578125,0.32421875,0.7890625,-3.65625,8.515625,2.7578125,0.005859375,-1.47265625,2.04882812
734,7321958,7621958,0.496765137,-0.319702148,-0.630187988,0.50390625,0.9609375,2.01171875,2.02734375,-3.2109375,8.6640625,2.8203125,0.005859375,-1.47265625,2.04882812
735,7334173,7634173,0.487060547,-0.326965332,-0.630126953,0.508728027,0.9609375,2.01171875,2.02734375,-3.2109375,8.6640625,2.8203125,-0.70703125,-1.66796875,1.8984375
736,7343841,7643841,0.476196289,-0.333618164,-0.630737305,0.513916016,0.90625,2.265625,1.6875,-2.7734375,8.7578125,2.96875,-0.70703125,-1.66796875,1.8984375
737,7353645,7653645,0.46484375,-0.340148926,-0.631286621,0.519287109,0.90625,2.265625,1.6875,-2.7734375,8.7578125,2.96875,-0.87890625,-1.82226562,2.0546875
738,7359217,7659217,0.454101562,-0.347229004,-0.631164551,0.524291992,1.2578125,-0.71875,-0.578125,-2.3203125,8.7890625,3.203125,-0.87890625,-1.82226562,2.0546875
739,7374822,7674822,0.443908691,-0.355895996,-0.629821777,0.528808594,1.2578125,-0.71875,-0.578125,-2.3203125,8.7890625,3.203125,-0.03515625,-1.68164062,2.22070312
740,7378546,7678546,0.43548584,-0.365539551,-0.62713623,0.532348633,1.1875,-1.99609375,-1.078125,-1.828125,8.84375,3.359375,-0.03515625,-1.68164062,2.22070312
