sample_index,offset_us,timestamp_us,sequence,accel_x_raw,accel_y_raw,accel_z_raw,gyro_x_raw,gyro_y_raw,gyro_z_raw,accel_x_g,accel_y_g,accel_z_g,gyro_x_dps,gyro_y_dps,gyro_z_dps
0,0,300000,0,-146,-6961,-5156,-1,2236,-1102,-0.0178222656,-0.849731445,-0.629394531,-0.0610351562,136.474609,-67.2607422
1,4992,304992,1,-128,-7054,-5192,28,2323,-1107,-0.015625,-0.861083984,-0.633789062,1.70898438,141.784668,-67.565918
2,10000,310000,2,-123,-7118,-5216,67,2412,-1117,-0.0150146484,-0.868896484,-0.63671875,4.08935547,147.216797,-68.1762695
3,14992,314992,3,-201,-7122,-5180,99,2485,-1124,-0.0245361328,-0.869384766,-0.632324219,6.04248047,151.672363,-68.6035156
4,20000,320000,4,-332,-7101,-5107,107,2528,-1136,-0.0405273438,-0.866821289,-0.623413086,6.53076172,154.296875,-69.3359375
5,24992,324992,5,-430,-7120,-5138,104,2546,-1144,-0.0524902344,-0.869140625,-0.627197266,6.34765625,155.395508,-69.8242188
6,30000,330000,6,-483,-7123,-5212,106,2528,-1140,-0.0589599609,-0.869506836,-0.636230469,6.46972656,154.296875,-69.5800781
7,34992,334992,7,-495,-7131,-5277,118,2484,-1131,-0.0604248047,-0.870483398,-0.644165039,7.20214844,151.611328,-69.0307617
8,40000,340000,8,-486,-7131,-5304,146,2405,-1118,-0.0593261719,-0.870483398,-0.647460938,8.91113281,146.789551,-68.2373047
9,44992,344992,9,-421,-7039,-5243,176,2284,-1107,-0.0513916016,-0.85925293,-0.640014648,10.7421875,139.404297,-67.565918
10,50000,350000,10,-271,-6833,-5163,192,2156,-1098,-0.0330810547,-0.834106445,-0.630249023,11.71875,131.591797,-67.0166016
11,54992,354992,11,-94,-6563,-5107,181,2024,-1083,-0.0114746094,-0.801147461,-0.623413086,11.0473633,123.535156,-66.1010742
12,60000,360000,12,136,-6298,-5045,152,1891,-1078,0.0166015625,-0.768798828,-0.615844727,9.27734375,115.41748,-65.7958984
13,64992,364992,13,410,-6077,-4936,101,1777,-1078,0.0500488281,-0.741821289,-0.602539062,6.16455078,108.459473,-65.7958984
14,70000,370000,14,699,-5947,-4953,36,1689,-1079,0.0853271484,-0.725952148,-0.604614258,2.19726562,103.088379,-65.8569336
15,74992,374992,15,1034,-5909,-4978,-14,1622,-1079,0.126220703,-0.721313477,-0.607666016,-0.854492188,98.9990234,-65.8569336
16,80000,380000,16,1414,-5973,-4924,-53,1573,-1074,0.172607422,-0.729125977,-0.601074219,-3.23486328,96.0083008,-65.5517578
17,84992,384992,17,1804,-6098,-4893,-103,1539,-1057,0.220214844,-0.744384766,-0.597290039,-6.28662109,93.9331055,-64.5141602
18,90000,390000,18,2089,-6253,-4971,-148,1517,-1023,0.255004883,-0.763305664,-0.606811523,-9.03320312,92.590332,-62.4389648
19,94992,394992,19,2195,-6433,-5203,-112,1522,-979,0.267944336,-0.78527832,-0.635131836,-6.8359375,92.8955078,-59.753418
20,100000,400000,20,2232,-6583,-5267,-5,1533,-934,0.272460938,-0.803588867,-0.642944336,-0.305175781,93.5668945,-57.0068359
21,104992,404992,21,2241,-6679,-5179,105,1528,-879,0.27355957,-0.815307617,-0.632202148,6.40869141,93.2617188,-53.6499023
22,110000,410000,22,2171,-6710,-5053,201,1499,-814,0.265014648,-0.819091797,-0.616821289,12.2680664,91.4916992,-49.6826172
23,114992,414992,23,2166,-6688,-4808,285,1478,-767,0.264404297,-0.81640625,-0.586914062,17.3950195,90.2099609,-46.8139648
24,120000,420000,24,2301,-6598,-4510,352,1474,-734,0.280883789,-0.805419922,-0.550537109,21.484375,89.9658203,-44.7998047
25,124992,424992,25,2508,-6440,-4279,401,1453,-716,0.306152344,-0.786132812,-0.522338867,24.4750977,88.684082,-43.7011719
26,130000,430000,26,2744,-6289,-4138,451,1433,-699,0.334960938,-0.767700195,-0.505126953,27.5268555,87.4633789,-42.6635742
27,134992,434992,27,2898,-6127,-4079,499,1426,-680,0.353759766,-0.747924805,-0.497924805,30.456543,87.0361328,-41.5039062
28,140000,440000,28,2977,-6004,-4112,516,1400,-674,0.36340332,-0.732910156,-0.501953125,31.4941406,85.4492188,-41.1376953
29,144992,444992,29,3019,-5967,-4163,508,1347,-677,0.368530273,-0.728393555,-0.508178711,31.0058594,82.2143555,-41.3208008
30,150000,450000,30,3061,-5982,-4147,481,1283,-673,0.373657227,-0.730224609,-0.506225586,29.3579102,78.3081055,-41.0766602
31,154992,454992,31,3039,-6031,-4126,434,1220,-657,0.37097168,-0.736206055,-0.503662109,26.4892578,74.4628906,-40.1000977
32,160000,460000,32,2949,-6112,-4163,384,1162,-649,0.359985352,-0.74609375,-0.508178711,23.4375,70.9228516,-39.6118164
33,164992,464992,33,2895,-6263,-4235,336,1101,-646,0.353393555,-0.764526367,-0.516967773,20.5078125,67.199707,-39.4287109
34,170000,470000,34,2859,-6464,-4405,292,1032,-635,0.348999023,-0.7890625,-0.537719727,17.8222656,62.9882812,-38.7573242
35,174992,474992,35,2833,-6656,-4639,287,954,-629,0.345825195,-0.8125,-0.56628418,17.5170898,58.2275391,-38.3911133
36,180000,480000,36,2811,-6819,-4747,332,885,-641,0.343139648,-0.832397461,-0.579467773,20.2636719,54.0161133,-39.1235352
37,184992,484992,37,2840,-6995,-4896,410,874,-670,0.346679688,-0.853881836,-0.59765625,25.0244141,53.3447266,-40.8935547
38,190000,490000,38,2882,-7130,-5025,502,918,-711,0.351806641,-0.870361328,-0.61340332,30.6396484,56.0302734,-43.3959961
39,194992,494992,39,2965,-7195,-4990,570,959,-750,0.361938477,-0.878295898,-0.609130859,34.7900391,58.5327148,-45.7763672
40,200000,500000,40,3096,-7183,-4942,607,974,-772,0.377929688,-0.876831055,-0.603271484,37.0483398,59.4482422,-47.1191406
41,204992,504992,41,3199,-7152,-4861,640,1002,-788,0.39050293,-0.873046875,-0.593383789,39.0625,61.1572266,-48.0957031
42,210000,510000,42,3291,-7189,-4669,662,1074,-803,0.401733398,-0.877563477,-0.569946289,40.4052734,65.5517578,-49.0112305
43,214992,514992,43,3348,-7129,-4399,663,1182,-807,0.408691406,-0.870239258,-0.536987305,40.4663086,72.1435547,-49.2553711
44,220000,520000,44,3326,-6928,-4101,642,1277,-816,0.406005859,-0.845703125,-0.500610352,39.1845703,77.9418945,-49.8046875
45,224992,524992,45,3375,-6790,-3764,594,1320,-843,0.411987305,-0.828857422,-0.459472656,36.2548828,80.5664062,-51.4526367
46,230000,530000,46,3506,-6702,-3433,529,1347,-866,0.427978516,-0.818115234,-0.419067383,32.2875977,82.2143555,-52.8564453
47,234992,534992,47,3645,-6604,-3159,465,1379,-881,0.444946289,-0.806152344,-0.385620117,28.3813477,84.1674805,-53.7719727
48,240000,540000,48,3816,-6436,-2807,421,1376,-877,0.465820312,-0.785644531,-0.342651367,25.6958008,83.984375,-53.527832
49,244992,544992,49,3885,-6171,-2312,352,1330,-866,0.474243164,-0.753295898,-0.282226562,21.484375,81.1767578,-52.8564453
50,250000,550000,50,4003,-5944,-1974,235,1250,-876,0.488647461,-0.725585938,-0.240966797,14.3432617,76.2939453,-53.4667969
51,254992,554992,51,4243,-5723,-1891,125,1157,-890,0.517944336,-0.698608398,-0.230834961,7.62939453,70.6176758,-54.3212891
52,260000,560000,52,4389,-5517,-1837,18,1077,-897,0.535766602,-0.673461914,-0.224243164,1.09863281,65.7348633,-54.7485352
53,264992,564992,53,4466,-5461,-1841,-130,983,-894,0.545166016,-0.666625977,-0.224731445,-7.93457031,59.9975586,-54.5654297
54,270000,570000,54,4584,-5511,-2024,-275,877,-861,0.559570312,-0.672729492,-0.247070312,-16.784668,53.527832,-52.5512695
55,274992,574992,55,4676,-5546,-2139,-397,777,-799,0.570800781,-0.677001953,-0.261108398,-24.230957,47.4243164,-48.7670898
56,280000,580000,56,4721,-5561,-2201,-522,683,-719,0.576293945,-0.678833008,-0.268676758,-31.8603516,41.6870117,-43.8842773
57,284992,584992,57,4744,-5587,-2335,-630,607,-634,0.579101562,-0.682006836,-0.28503418,-38.4521484,37.0483398,-38.6962891
58,290000,590000,58,4729,-5681,-2446,-700,542,-561,0.577270508,-0.693481445,-0.298583984,-42.7246094,33.0810547,-34.2407227
59,294992,594992,59,4849,-5936,-2619,-723,506,-504,0.591918945,-0.724609375,-0.319702148,-44.128418,30.8837891,-30.7617188
60,300000,600000,60,5082,-6223,-2861,-680,518,-462,0.620361328,-0.759643555,-0.349243164,-41.5039062,31.6162109,-28.1982422
61,304992,604992,61,5284,-6411,-3000,-581,553,-432,0.645019531,-0.782592773,-0.366210938,-35.4614258,33.7524414,-26.3671875
62,310000,610000,62,5362,-6556,-2923,-475,610,-418,0.654541016,-0.800292969,-0.356811523,-28.9916992,37.2314453,-25.5126953
63,314992,614992,63,5252,-6679,-2699,-399,686,-412,0.641113281,-0.815307617,-0.329467773,-24.3530273,41.8701172,-25.1464844
64,320000,620000,64,5175,-6858,-2637,-332,779,-407,0.631713867,-0.837158203,-0.321899414,-20.2636719,47.5463867,-24.8413086
65,324992,624992,65,5042,-7020,-2578,-240,875,-407,0.615478516,-0.856933594,-0.314697266,-14.6484375,53.4057617,-24.8413086
66,330000,630000,66,4782,-7081,-2265,-146,951,-420,0.583740234,-0.864379883,-0.276489258,-8.91113281,58.0444336,-25.6347656
67,334992,634992,67,4639,-7114,-1965,-70,1018,-452,0.56628418,-0.868408203,-0.239868164,-4.27246094,62.1337891,-27.5878906
68,340000,640000,68,4758,-7185,-1862,1,1041,-477,0.580810547,-0.877075195,-0.227294922,0.0610351562,63.5375977,-29.1137695
69,344992,644992,69,4866,-7174,-1673,69,990,-473,0.593994141,-0.875732422,-0.204223633,4.21142578,60.4248047,-28.8696289
70,350000,650000,70,4794,-6887,-1451,150,939,-457,0.585205078,-0.840698242,-0.177124023,9.15527344,57.3120117,-27.8930664
71,354992,654992,71,4632,-6403,-1302,236,895,-451,0.565429688,-0.781616211,-0.158935547,14.4042969,54.6264648,-27.5268555
72,360000,660000,72,4450,-5924,-1065,271,805,-450,0.543212891,-0.723144531,-0.130004883,16.5405273,49.1333008,-27.4658203
73,364992,664992,73,4355,-5582,-974,245,706,-448,0.531616211,-0.681396484,-0.118896484,14.9536133,43.0908203,-27.34375
74,370000,670000,74,4353,-5406,-1151,205,628,-445,0.53137207,-0.659912109,-0.14050293,12.512207,38.3300781,-27.1606445
75,374992,674992,75,4404,-5340,-1395,173,560,-444,0.537597656,-0.651855469,-0.170288086,10.559082,34.1796875,-27.0996094
76,380000,680000,76,4370,-5333,-1438,127,485,-451,0.533447266,-0.651000977,-0.175537109,7.75146484,29.6020508,-27.5268555
77,384992,684992,77,4368,-5373,-1415,55,407,-456,0.533203125,-0.655883789,-0.172729492,3.35693359,24.8413086,-27.8320312
78,390000,690000,78,4439,-5390,-1434,-16,347,-447,0.541870117,-0.657958984,-0.175048828,-0.9765625,21.1791992,-27.2827148
79,394992,694992,79,4516,-5402,-1466,-72,311,-434,0.551269531,-0.659423828,-0.178955078,-4.39453125,18.9819336,-26.4892578
80,400000,700000,80,4573,-5456,-1518,-114,294,-424,0.558227539,-0.666015625,-0.185302734,-6.95800781,17.9443359,-25.8789062
81,404992,704992,81,4570,-5552,-1577,-140,289,-414,0.557861328,-0.677734375,-0.192504883,-8.54492188,17.6391602,-25.2685547
82,410000,710000,82,4499,-5667,-1630,-155,287,-401,0.549194336,-0.691772461,-0.198974609,-9.46044922,17.5170898,-24.4750977
83,414992,714992,83,4401,-5796,-1649,-161,284,-389,0.537231445,-0.707519531,-0.201293945,-9.82666016,17.3339844,-23.7426758
84,420000,720000,84,4345,-5942,-1702,-145,280,-374,0.530395508,-0.725341797,-0.207763672,-8.85009766,17.0898438,-22.8271484
85,424992,724992,85,4319,-6059,-1709,-114,276,-355,0.52722168,-0.739624023,-0.208618164,-6.95800781,16.8457031,-21.6674805
86,430000,730000,86,4286,-6139,-1665,-86,268,-337,0.523193359,-0.749389648,-0.20324707,-5.24902344,16.3574219,-20.5688477
87,434992,734992,87,4221,-6186,-1654,-64,252,-319,0.515258789,-0.755126953,-0.201904297,-3.90625,15.3808594,-19.4702148
88,440000,740000,88,4174,-6232,-1713,-44,229,-302,0.509521484,-0.760742188,-0.209106445,-2.68554688,13.9770508,-18.4326172
89,444992,744992,89,4153,-6284,-1869,-16,202,-284,0.506958008,-0.767089844,-0.228149414,-0.9765625,12.3291016,-17.3339844
90,450000,750000,90,4151,-6312,-2062,14,172,-267,0.506713867,-0.770507812,-0.251708984,0.854492188,10.4980469,-16.2963867
91,454992,754992,91,4233,-6331,-2247,34,144,-250,0.516723633,-0.772827148,-0.274291992,2.07519531,8.7890625,-15.2587891
92,460000,760000,92,4380,-6318,-2410,39,123,-232,0.534667969,-0.771240234,-0.294189453,2.38037109,7.50732422,-14.1601562
93,464992,764992,93,4537,-6287,-2514,33,106,-217,0.553833008,-0.767456055,-0.306884766,2.01416016,6.46972656,-13.2446289
94,470000,770000,94,4695,-6280,-2542,25,92,-204,0.573120117,-0.766601562,-0.310302734,1.52587891,5.61523438,-12.4511719
95,474992,774992,95,4846,-6281,-2552,18,88,-189,0.591552734,-0.766723633,-0.311523438,1.09863281,5.37109375,-11.5356445
96,480000,780000,96,4982,-6287,-2606,7,92,-172,0.608154297,-0.767456055,-0.318115234,0.427246094,5.61523438,-10.4980469
97,484992,784992,97,5041,-6276,-2662,-11,98,-155,0.615356445,-0.766113281,-0.324951172,-0.671386719,5.98144531,-9.46044922
98,490000,790000,98,5025,-6261,-2698,-34,104,-137,0.61340332,-0.764282227,-0.329345703,-2.07519531,6.34765625,-8.36181641
99,494992,794992,99,4995,-6264,-2710,-49,109,-122,0.609741211,-0.764648438,-0.330810547,-2.99072266,6.65283203,-7.44628906
100,500000,800000,100,4982,-6267,-2701,-60,113,-105,0.608154297,-0.765014648,-0.329711914,-3.66210938,6.89697266,-6.40869141
101,504992,804992,101,4962,-6293,-2719,-73,116,-84,0.605712891,-0.768188477,-0.33190918,-4.45556641,7.08007812,-5.12695312
102,510000,810000,102,4931,-6370,-2784,-83,120,-61,0.601928711,-0.777587891,-0.33984375,-5.06591797,7.32421875,-3.72314453
103,514992,814992,103,4891,-6490,-2863,-83,121,-42,0.597045898,-0.792236328,-0.349487305,-5.06591797,7.38525391,-2.56347656
104,520000,820000,104,4802,-6608,-2912,-73,114,-22,0.586181641,-0.806640625,-0.35546875,-4.45556641,6.95800781,-1.34277344
105,524992,824992,105,4711,-6712,-2934,-54,102,-2,0.575073242,-0.819335938,-0.358154297,-3.29589844,6.22558594,-0.122070312
106,530000,830000,106,4669,-6825,-2933,-29,88,12,0.569946289,-0.833129883,-0.358032227,-1.77001953,5.37109375,0.732421875
107,534992,834992,107,4642,-6918,-2914,4,79,22,0.566650391,-0.844482422,-0.355712891,0.244140625,4.82177734,1.34277344
108,540000,840000,108,4576,-6949,-2891,46,66,30,0.55859375,-0.848266602,-0.352905273,2.80761719,4.02832031,1.83105469
109,544992,844992,109,4489,-6928,-2850,95,52,30,0.547973633,-0.845703125,-0.347900391,5.79833984,3.17382812,1.83105469
110,550000,850000,110,4437,-6876,-2813,141,42,21,0.541625977,-0.839355469,-0.343383789,8.60595703,2.56347656,1.28173828
111,554992,854992,111,4389,-6787,-2802,184,33,10,0.535766602,-0.828491211,-0.342041016,11.2304688,2.01416016,0.610351562
112,560000,860000,112,4340,-6688,-2782,227,27,-4,0.529785156,-0.81640625,-0.339599609,13.8549805,1.64794922,-0.244140625
113,564992,864992,113,4319,-6598,-2739,268,30,-21,0.52722168,-0.805419922,-0.334350586,16.3574219,1.83105469,-1.28173828
114,570000,870000,114,4306,-6525,-2699,298,37,-35,0.525634766,-0.796508789,-0.329467773,18.1884766,2.25830078,-2.13623047
115,574992,874992,115,4273,-6470,-2667,320,42,-43,0.521606445,-0.789794922,-0.325561523,19.53125,2.56347656,-2.62451172
116,580000,880000,116,4255,-6455,-2645,338,47,-43,0.51940918,-0.787963867,-0.322875977,20.6298828,2.86865234,-2.62451172
117,584992,884992,117,4264,-6509,-2651,353,51,-37,0.520507812,-0.794555664,-0.323608398,21.5454102,3.11279297,-2.25830078
118,590000,890000,118,4252,-6585,-2666,370,49,-22,0.519042969,-0.803833008,-0.325439453,22.5830078,2.99072266,-1.34277344
119,594992,894992,119,4227,-6640,-2664,392,44,1,0.515991211,-0.810546875,-0.325195312,23.9257812,2.68554688,0.0610351562
120,600000,900000,120,4273,-6683,-2632,414,34,30,0.521606445,-0.815795898,-0.321289062,25.2685547,2.07519531,1.83105469
121,604992,904992,121,4400,-6699,-2576,433,19,61,0.537109375,-0.817749023,-0.314453125,26.4282227,1.15966797,3.72314453
122,610000,910000,122,4545,-6660,-2498,451,9,87,0.55480957,-0.812988281,-0.304931641,27.5268555,0.549316406,5.31005859
123,614992,914992,123,4662,-6591,-2405,469,3,109,0.569091797,-0.80456543,-0.293579102,28.6254883,0.183105469,6.65283203
124,620000,920000,124,4747,-6524,-2322,481,-3,126,0.579467773,-0.796386719,-0.283447266,29.3579102,-0.183105469,7.69042969
125,624992,924992,125,4816,-6441,-2233,487,-11,139,0.587890625,-0.786254883,-0.272583008,29.7241211,-0.671386719,8.48388672
126,630000,930000,126,4816,-6326,-2166,485,-16,148,0.587890625,-0.772216797,-0.264404297,29.6020508,-0.9765625,9.03320312
127,634992,934992,127,4752,-6208,-2143,478,-15,153,0.580078125,-0.7578125,-0.26159668,29.1748047,-0.915527344,9.33837891
128,640000,940000,128,4702,-6118,-2110,465,-6,161,0.573974609,-0.746826172,-0.257568359,28.3813477,-0.366210938,9.82666016
129,644992,944992,129,4691,-6055,-2038,440,9,172,0.572631836,-0.739135742,-0.248779297,26.8554688,0.549316406,10.4980469
130,650000,950000,130,4696,-6003,-1935,407,35,187,0.573242188,-0.732788086,-0.236206055,24.8413086,2.13623047,11.4135742
131,654992,954992,131,4694,-5965,-1811,372,67,205,0.572998047,-0.728149414,-0.221069336,22.7050781,4.08935547,12.512207
132,660000,960000,132,4685,-5952,-1704,339,98,221,0.571899414,-0.7265625,-0.208007812,20.690918,5.98144531,13.4887695
133,664992,964992,133,4693,-5964,-1616,319,127,236,0.572875977,-0.728027344,-0.197265625,19.4702148,7.75146484,14.4042969
134,670000,970000,134,4716,-5987,-1520,307,149,246,0.575683594,-0.730834961,-0.185546875,18.737793,9.09423828,15.0146484
135,674992,974992,135,4754,-5992,-1404,297,163,249,0.580322266,-0.731445312,-0.171386719,18.1274414,9.94873047,15.1977539
136,680000,980000,136,4835,-5962,-1287,289,182,251,0.590209961,-0.727783203,-0.157104492,17.6391602,11.1083984,15.3198242
137,684992,984992,137,4916,-5887,-1148,279,208,254,0.600097656,-0.71862793,-0.140136719,17.0288086,12.6953125,15.5029297
138,690000,990000,138,4980,-5812,-932,257,233,264,0.607910156,-0.709472656,-0.113769531,15.6860352,14.2211914,16.1132812
139,694992,994992,139,5011,-5787,-716,228,249,294,0.611694336,-0.706420898,-0.0874023438,13.9160156,15.1977539,17.9443359
140,700000,1000000,140,4936,-5816,-588,211,253,341,0.602539062,-0.709960938,-0.0717773438,12.878418,15.4418945,20.8129883
141,704992,1004992,141,4801,-5894,-504,228,248,384,0.58605957,-0.719482422,-0.0615234375,13.9160156,15.1367188,23.4375
142,710000,1010000,142,4671,-5996,-438,276,226,419,0.57019043,-0.731933594,-0.0534667969,16.8457031,13.7939453,25.5737305
143,714992,1014992,143,4536,-6062,-371,341,188,446,0.553710938,-0.739990234,-0.0452880859,20.8129883,11.4746094,27.2216797
144,720000,1020000,144,4443,-6081,-352,404,134,467,0.542358398,-0.74230957,-0.04296875,24.6582031,8.17871094,28.503418
145,724992,1024992,145,4366,-6050,-398,461,61,478,0.532958984,-0.738525391,-0.0485839844,28.137207,3.72314453,29.1748047
146,730000,1030000,146,4325,-5992,-475,517,-20,471,0.527954102,-0.731445312,-0.0579833984,31.5551758,-1.22070312,28.7475586
147,734992,1034992,147,4352,-5922,-539,561,-109,458,0.53125,-0.722900391,-0.0657958984,34.2407227,-6.65283203,27.9541016
148,740000,1040000,148,4420,-5841,-575,579,-198,439,0.539550781,-0.713012695,-0.0701904297,35.3393555,-12.0849609,26.7944336
149,744992,1044992,149,4535,-5792,-682,577,-276,421,0.553588867,-0.70703125,-0.0832519531,35.2172852,-16.8457031,25.6958008
150,750000,1050000,150,4622,-5713,-792,561,-348,413,0.564208984,-0.697387695,-0.0966796875,34.2407227,-21.2402344,25.2075195
151,754992,1054992,151,4665,-5611,-845,535,-403,398,0.569458008,-0.684936523,-0.103149414,32.6538086,-24.597168,24.2919922
152,760000,1060000,152,4681,-5580,-875,506,-431,375,0.571411133,-0.681152344,-0.106811523,30.8837891,-26.3061523,22.8881836
153,764992,1064992,153,4774,-5613,-908,476,-444,364,0.582763672,-0.685180664,-0.110839844,29.0527344,-27.0996094,22.2167969
154,770000,1070000,154,4880,-5628,-912,444,-460,368,0.595703125,-0.687011719,-0.111328125,27.0996094,-28.0761719,22.4609375
155,774992,1074992,155,4957,-5638,-875,403,-484,375,0.605102539,-0.688232422,-0.106811523,24.597168,-29.5410156,22.8881836
156,780000,1080000,156,5056,-5625,-816,353,-506,380,0.6171875,-0.686645508,-0.099609375,21.5454102,-30.8837891,23.1933594
157,784992,1084992,157,5099,-5486,-779,298,-519,394,0.622436523,-0.669677734,-0.0950927734,18.1884766,-31.6772461,24.0478516
158,790000,1090000,158,5086,-5307,-761,235,-529,420,0.620849609,-0.647827148,-0.0928955078,14.3432617,-32.2875977,25.6347656
159,794992,1094992,159,5053,-5266,-820,161,-549,454,0.616821289,-0.642822266,-0.100097656,9.82666016,-33.5083008,27.7099609
160,800000,1100000,160,4947,-5391,-1045,88,-591,498,0.603881836,-0.658081055,-0.127563477,5.37109375,-36.0717773,30.3955078
161,804992,1104992,161,4730,-5611,-1359,36,-661,526,0.577392578,-0.684936523,-0.165893555,2.19726562,-40.3442383,32.1044922
162,810000,1110000,162,4577,-5908,-1654,5,-743,532,0.55871582,-0.721191406,-0.201904297,0.305175781,-45.3491211,32.4707031
163,814992,1114992,163,4540,-6236,-1907,-25,-826,538,0.554199219,-0.761230469,-0.232788086,-1.52587891,-50.4150391,32.8369141
164,820000,1120000,164,4551,-6533,-2203,-62,-911,557,0.555541992,-0.797485352,-0.268920898,-3.78417969,-55.6030273,33.996582
165,824992,1124992,165,4639,-6809,-2563,-90,-998,580,0.56628418,-0.831176758,-0.312866211,-5.49316406,-60.9130859,35.4003906
166,830000,1130000,166,4767,-7044,-2907,-102,-1071,601,0.58190918,-0.859863281,-0.354858398,-6.22558594,-65.3686523,36.6821289
167,834992,1134992,167,4849,-7198,-3220,-96,-1110,623,0.591918945,-0.878662109,-0.393066406,-5.859375,-67.7490234,38.0249023
168,840000,1140000,168,4873,-7300,-3443,-77,-1111,643,0.594848633,-0.891113281,-0.420288086,-4.69970703,-67.8100586,39.2456055
169,844992,1144992,169,4888,-7413,-3539,-59,-1080,648,0.596679688,-0.904907227,-0.432006836,-3.60107422,-65.9179688,39.5507812
170,850000,1150000,170,4882,-7558,-3593,-53,-1021,634,0.595947266,-0.922607422,-0.438598633,-3.23486328,-62.3168945,38.6962891
171,854992,1154992,171,4835,-7683,-3631,-40,-940,611,0.590209961,-0.937866211,-0.443237305,-2.44140625,-57.3730469,37.2924805
172,860000,1160000,172,4740,-7747,-3661,-2,-847,585,0.578613281,-0.945678711,-0.446899414,-0.122070312,-51.6967773,35.7055664
173,864992,1164992,173,4603,-7735,-3631,58,-765,558,0.561889648,-0.944213867,-0.443237305,3.54003906,-46.6918945,34.0576172
174,870000,1170000,174,4425,-7632,-3589,122,-713,547,0.540161133,-0.931640625,-0.438110352,7.44628906,-43.5180664,33.3862305
175,874992,1174992,175,4148,-7502,-3601,191,-701,546,0.506347656,-0.915771484,-0.439575195,11.6577148,-42.7856445,33.3251953
176,880000,1180000,176,3812,-7440,-3682,252,-717,537,0.465332031,-0.908203125,-0.449462891,15.3808594,-43.762207,32.7758789
177,884992,1184992,177,3526,-7444,-3854,286,-744,511,0.430419922,-0.908691406,-0.470458984,17.4560547,-45.4101562,31.1889648
178,890000,1190000,178,3354,-7466,-4004,295,-784,476,0.409423828,-0.911376953,-0.488769531,18.0053711,-47.8515625,29.0527344
179,894992,1194992,179,3298,-7442,-4048,266,-843,450,0.402587891,-0.908447266,-0.494140625,16.2353516,-51.4526367,27.4658203
180,900000,1200000,180,3430,-7348,-4061,234,-913,431,0.418701172,-0.896972656,-0.495727539,14.2822266,-55.7250977,26.3061523
181,904992,1204992,181,3622,-7134,-4024,241,-967,437,0.442138672,-0.870849609,-0.491210938,14.7094727,-59.0209961,26.6723633
182,910000,1210000,182,3687,-6790,-3891,255,-990,455,0.450073242,-0.828857422,-0.474975586,15.5639648,-60.4248047,27.7709961
183,914992,1214992,183,3710,-6466,-3730,222,-996,461,0.452880859,-0.789306641,-0.455322266,13.5498047,-60.7910156,28.137207
184,920000,1220000,184,3740,-6225,-3690,144,-996,454,0.456542969,-0.759887695,-0.450439453,8.7890625,-60.7910156,27.7099609
185,924992,1224992,185,3814,-6035,-3753,62,-982,453,0.465576172,-0.736694336,-0.458129883,3.78417969,-59.9365234,27.6489258
186,930000,1230000,186,3874,-5875,-3679,-21,-965,474,0.472900391,-0.717163086,-0.44909668,-1.28173828,-58.8989258,28.9306641
187,934992,1234992,187,3875,-5783,-3495,-130,-951,513,0.473022461,-0.705932617,-0.426635742,-7.93457031,-58.0444336,31.3110352
188,940000,1240000,188,3778,-5797,-3332,-256,-950,561,0.461181641,-0.707641602,-0.406738281,-15.625,-57.9833984,34.2407227
189,944992,1244992,189,3567,-5920,-3249,-374,-962,589,0.435424805,-0.72265625,-0.396606445,-22.8271484,-58.7158203,35.949707
190,950000,1250000,190,3423,-6143,-3328,-455,-964,610,0.41784668,-0.74987793,-0.40625,-27.7709961,-58.8378906,37.2314453
191,954992,1254992,191,3281,-6352,-3426,-488,-957,656,0.400512695,-0.775390625,-0.418212891,-29.7851562,-58.4106445,40.0390625
192,960000,1260000,192,3050,-6542,-3380,-515,-980,696,0.372314453,-0.798583984,-0.412597656,-31.4331055,-59.8144531,42.4804688
193,964992,1264992,193,2897,-6787,-3370,-541,-1024,715,0.353637695,-0.828491211,-0.411376953,-33.0200195,-62.5,43.6401367
194,970000,1270000,194,2770,-6976,-3480,-529,-1053,748,0.338134766,-0.8515625,-0.424804688,-32.2875977,-64.2700195,45.6542969
195,974992,1274992,195,2521,-7080,-3627,-481,-1084,784,0.307739258,-0.864257812,-0.442749023,-29.3579102,-66.1621094,47.8515625
196,980000,1280000,196,2299,-7173,-3824,-429,-1125,807,0.280639648,-0.875610352,-0.466796875,-26.184082,-68.6645508,49.2553711
197,984992,1284992,197,2163,-7228,-3993,-382,-1170,835,0.264038086,-0.882324219,-0.487426758,-23.3154297,-71.4111328,50.9643555
198,990000,1290000,198,2025,-7226,-4076,-353,-1220,871,0.247192383,-0.882080078,-0.497558594,-21.5454102,-74.4628906,53.1616211
199,994992,1294992,199,1938,-7209,-4164,-347,-1264,904,0.236572266,-0.880004883,-0.508300781,-21.1791992,-77.1484375,55.1757812
200,1000000,1300000,200,1900,-7211,-4293,-344,-1319,939,0.231933594,-0.880249023,-0.524047852,-20.9960938,-80.5053711,57.3120117
201,1004992,1304992,201,1925,-7247,-4388,-326,-1374,966,0.234985352,-0.884643555,-0.535644531,-19.8974609,-83.8623047,58.9599609
202,1010000,1310000,202,2033,-7277,-4403,-291,-1400,989,0.248168945,-0.888305664,-0.537475586,-17.7612305,-85.4492188,60.3637695
203,1014992,1314992,203,2076,-7231,-4333,-255,-1405,1012,0.253417969,-0.88269043,-0.528930664,-15.5639648,-85.7543945,61.7675781
204,1020000,1320000,204,2052,-7108,-4252,-238,-1416,1030,0.250488281,-0.867675781,-0.519042969,-14.5263672,-86.4257812,62.8662109
205,1024992,1324992,205,2029,-6973,-4233,-226,-1431,1048,0.247680664,-0.851196289,-0.516723633,-13.7939453,-87.3413086,63.9648438
206,1030000,1330000,206,1987,-6938,-4207,-211,-1431,1058,0.242553711,-0.846923828,-0.513549805,-12.878418,-87.3413086,64.5751953
207,1034992,1334992,207,1948,-7009,-4173,-210,-1430,1069,0.237792969,-0.85559082,-0.509399414,-12.8173828,-87.2802734,65.246582
208,1040000,1340000,208,1868,-7099,-4224,-211,-1447,1089,0.228027344,-0.866577148,-0.515625,-12.878418,-88.3178711,66.4672852
209,1044992,1344992,209,1721,-7218,-4294,-185,-1473,1106,0.210083008,-0.881103516,-0.524169922,-11.2915039,-89.9047852,67.5048828
210,1050000,1350000,210,1553,-7327,-4263,-135,-1484,1118,0.189575195,-0.89440918,-0.520385742,-8.23974609,-90.5761719,68.2373047
211,1054992,1354992,211,1378,-7352,-4205,-105,-1494,1119,0.168212891,-0.897460938,-0.513305664,-6.40869141,-91.1865234,68.2983398
212,1060000,1360000,212,1240,-7330,-4168,-98,-1520,1116,0.151367188,-0.894775391,-0.508789062,-5.98144531,-92.7734375,68.1152344
213,1064992,1364992,213,1188,-7317,-4130,-90,-1546,1123,0.145019531,-0.893188477,-0.504150391,-5.49316406,-94.3603516,68.5424805
214,1070000,1370000,214,1140,-7288,-4063,-87,-1561,1139,0.139160156,-0.889648438,-0.49597168,-5.31005859,-95.2758789,69.519043
215,1074992,1374992,215,1066,-7255,-4044,-106,-1583,1160,0.130126953,-0.885620117,-0.493652344,-6.46972656,-96.6186523,70.8007812
216,1080000,1380000,216,999,-7267,-4100,-119,-1614,1175,0.121948242,-0.887084961,-0.500488281,-7.26318359,-98.5107422,71.7163086
217,1084992,1384992,217,938,-7295,-4061,-115,-1636,1182,0.114501953,-0.89050293,-0.495727539,-7.01904297,-99.8535156,72.1435547
218,1090000,1390000,218,895,-7356,-4008,-121,-1652,1188,0.10925293,-0.897949219,-0.489257812,-7.38525391,-100.830078,72.5097656
219,1094992,1394992,219,868,-7474,-4051,-126,-1664,1196,0.105957031,-0.912353516,-0.494506836,-7.69042969,-101.5625,72.9980469
220,1100000,1400000,220,845,-7580,-4114,-117,-1674,1212,0.103149414,-0.925292969,-0.502197266,-7.14111328,-102.172852,73.9746094
221,1104992,1404992,221,791,-7658,-4204,-108,-1695,1234,0.0965576172,-0.934814453,-0.513183594,-6.59179688,-103.45459,75.3173828
222,1110000,1410000,222,768,-7711,-4305,-91,-1710,1253,0.09375,-0.94128418,-0.525512695,-5.55419922,-104.370117,76.4770508
223,1114992,1414992,223,747,-7698,-4380,-52,-1714,1273,0.0911865234,-0.939697266,-0.534667969,-3.17382812,-104.614258,77.6977539
224,1120000,1420000,224,688,-7642,-4372,-9,-1724,1279,0.083984375,-0.932861328,-0.533691406,-0.549316406,-105.224609,78.0639648
225,1124992,1424992,225,716,-7606,-4314,33,-1729,1265,0.0874023438,-0.928466797,-0.526611328,2.01416016,-105.529785,77.2094727
226,1130000,1430000,226,771,-7555,-4176,87,-1704,1278,0.0941162109,-0.922241211,-0.509765625,5.31005859,-104.003906,78.0029297
227,1134992,1434992,227,593,-7400,-4006,133,-1687,1333,0.0723876953,-0.903320312,-0.489013672,8.11767578,-102.966309,81.3598633
228,1140000,1440000,228,270,-7180,-3908,148,-1704,1379,0.0329589844,-0.876464844,-0.477050781,9.03320312,-104.003906,84.1674805
229,1144992,1444992,229,74,-7054,-3888,136,-1742,1387,0.00903320312,-0.861083984,-0.474609375,8.30078125,-106.323242,84.6557617
230,1150000,1450000,230,45,-7034,-3893,135,-1785,1389,0.00549316406,-0.858642578,-0.475219727,8.23974609,-108.947754,84.777832
231,1154992,1454992,231,49,-7043,-3803,149,-1800,1401,0.00598144531,-0.859741211,-0.464233398,9.09423828,-109.863281,85.5102539
232,1160000,1460000,232,4,-7083,-3720,154,-1800,1406,0.00048828125,-0.864624023,-0.454101562,9.39941406,-109.863281,85.8154297
233,1164992,1464992,233,-104,-7128,-3699,137,-1817,1419,-0.0126953125,-0.870117188,-0.451538086,8.36181641,-110.900879,86.6088867
234,1170000,1470000,234,-294,-7178,-3705,117,-1846,1428,-0.0358886719,-0.876220703,-0.452270508,7.14111328,-112.670898,87.1582031
235,1174992,1474992,235,-425,-7250,-3661,99,-1863,1420,-0.0518798828,-0.885009766,-0.446899414,6.04248047,-113.708496,86.6699219
236,1180000,1480000,236,-510,-7338,-3670,73,-1876,1423,-0.0622558594,-0.895751953,-0.447998047,4.45556641,-114.501953,86.8530273
237,1184992,1484992,237,-702,-7421,-3799,61,-1890,1425,-0.0856933594,-0.905883789,-0.463745117,3.72314453,-115.356445,86.9750977
238,1190000,1490000,238,-895,-7454,-3793,67,-1899,1415,-0.10925293,-0.909912109,-0.463012695,4.08935547,-115.905762,86.3647461
239,1194992,1494992,239,-1037,-7473,-3732,52,-1911,1414,-0.126586914,-0.912231445,-0.455566406,3.17382812,-116.638184,86.3037109
240,1200000,1500000,240,-1193,-7529,-3856,43,-1925,1429,-0.145629883,-0.919067383,-0.470703125,2.62451172,-117.492676,87.2192383
241,1204992,1504992,241,-1342,-7607,-3933,61,-1941,1444,-0.163818359,-0.928588867,-0.480102539,3.72314453,-118.469238,88.1347656
242,1210000,1510000,242,-1447,-7642,-3881,79,-1954,1452,-0.176635742,-0.932861328,-0.473754883,4.82177734,-119.262695,88.6230469
243,1214992,1514992,243,-1496,-7654,-3820,90,-1963,1454,-0.182617188,-0.934326172,-0.466308594,5.49316406,-119.812012,88.7451172
244,1220000,1520000,244,-1532,-7699,-3823,102,-1958,1450,-0.187011719,-0.939819336,-0.466674805,6.22558594,-119.506836,88.5009766
245,1224992,1524992,245,-1567,-7717,-3851,119,-1939,1443,-0.19128418,-0.942016602,-0.470092773,7.26318359,-118.347168,88.0737305
246,1230000,1530000,246,-1574,-7652,-3851,133,-1915,1431,-0.192138672,-0.934082031,-0.470092773,8.11767578,-116.882324,87.3413086
247,1234992,1534992,247,-1557,-7540,-3851,143,-1888,1417,-0.190063477,-0.920410156,-0.470092773,8.72802734,-115.234375,86.4868164
248,1240000,1540000,248,-1584,-7425,-3827,154,-1860,1406,-0.193359375,-0.90637207,-0.467163086,9.39941406,-113.525391,85.8154297
249,1244992,1544992,249,-1636,-7275,-3788,166,-1829,1394,-0.199707031,-0.888061523,-0.462402344,10.1318359,-111.633301,85.0830078
250,1250000,1550000,250,-1666,-7113,-3687,169,-1791,1370,-0.203369141,-0.868286133,-0.450073242,10.3149414,-109.313965,83.6181641
251,1254992,1554992,251,-1676,-6984,-3574,151,-1751,1336,-0.204589844,-0.852539062,-0.436279297,9.21630859,-106.872559,81.5429688
252,1260000,1560000,252,-1692,-6890,-3547,123,-1717,1304,-0.206542969,-0.841064453,-0.432983398,7.50732422,-104.797363,79.5898438
253,1264992,1564992,253,-1704,-6820,-3490,115,-1679,1273,-0.208007812,-0.832519531,-0.426025391,7.01904297,-102.478027,77.6977539
254,1270000,1570000,254,-1720,-6776,-3366,101,-1634,1250,-0.209960938,-0.827148438,-0.410888672,6.16455078,-99.7314453,76.2939453
255,1274992,1574992,255,-1799,-6775,-3355,68,-1604,1247,-0.219604492,-0.827026367,-0.409545898,4.15039062,-97.9003906,76.1108398
256,1280000,1580000,256,-1940,-6810,-3404,45,-1578,1240,-0.236816406,-0.831298828,-0.415527344,2.74658203,-96.3134766,75.6835938
257,1284992,1584992,257,-2049,-6851,-3411,41,-1551,1216,-0.25012207,-0.836303711,-0.416381836,2.50244141,-94.6655273,74.21875
258,1290000,1590000,258,-2058,-6865,-3420,35,-1531,1190,-0.251220703,-0.838012695,-0.417480469,2.13623047,-93.4448242,72.6318359
259,1294992,1594992,259,-2012,-6855,-3455,25,-1511,1165,-0.245605469,-0.836791992,-0.42175293,1.52587891,-92.2241211,71.105957
260,1300000,1600000,260,-1964,-6847,-3439,8,-1484,1140,-0.239746094,-0.83581543,-0.419799805,0.48828125,-90.5761719,69.5800781
261,1304992,1604992,261,-1894,-6811,-3416,-14,-1438,1109,-0.231201172,-0.831420898,-0.416992188,-0.854492188,-87.7685547,67.6879883
262,1310000,1610000,262,-1797,-6779,-3348,-33,-1368,1067,-0.219360352,-0.827514648,-0.408691406,-2.01416016,-83.4960938,65.1245117
263,1314992,1614992,263,-1721,-6830,-3376,-59,-1285,1020,-0.210083008,-0.833740234,-0.412109375,-3.60107422,-78.4301758,62.2558594
264,1320000,1620000,264,-1682,-6854,-3460,-56,-1205,972,-0.205322266,-0.836669922,-0.422363281,-3.41796875,-73.5473633,59.3261719
265,1324992,1624992,265,-1666,-6823,-3309,-46,-1126,917,-0.203369141,-0.832885742,-0.403930664,-2.80761719,-68.7255859,55.9692383
266,1330000,1630000,266,-1664,-6835,-3202,-63,-1037,862,-0.203125,-0.834350586,-0.390869141,-3.84521484,-63.293457,52.6123047
267,1334992,1634992,267,-1718,-6874,-3239,-79,-947,810,-0.209716797,-0.839111328,-0.395385742,-4.82177734,-57.800293,49.4384766
268,1340000,1640000,268,-1779,-6916,-3246,-80,-864,756,-0.217163086,-0.844238281,-0.396240234,-4.8828125,-52.734375,46.1425781
269,1344992,1644992,269,-1823,-6999,-3237,-77,-788,702,-0.22253418,-0.854370117,-0.395141602,-4.69970703,-48.0957031,42.8466797
270,1350000,1650000,270,-1864,-7100,-3216,-73,-717,649,-0.227539062,-0.866699219,-0.392578125,-4.45556641,-43.762207,39.6118164
271,1354992,1654992,271,-1886,-7155,-3160,-68,-647,594,-0.230224609,-0.873413086,-0.385742188,-4.15039062,-39.4897461,36.2548828
272,1360000,1660000,272,-1913,-7146,-3109,-61,-578,533,-0.233520508,-0.872314453,-0.379516602,-3.72314453,-35.2783203,32.5317383
273,1364992,1664992,273,-1915,-7112,-3041,-52,-512,463,-0.233764648,-0.868164062,-0.37121582,-3.17382812,-31.25,28.2592773
274,1370000,1670000,274,-1923,-7076,-3001,-54,-443,393,-0.234741211,-0.863769531,-0.366333008,-3.29589844,-27.0385742,23.9868164
275,1374992,1674992,275,-1948,-7033,-3029,-63,-375,322,-0.237792969,-0.858520508,-0.369750977,-3.84521484,-22.8881836,19.6533203
276,1380000,1680000,276,-1926,-7020,-3039,-72,-311,245,-0.235107422,-0.856933594,-0.37097168,-4.39453125,-18.9819336,14.9536133
277,1384992,1684992,277,-1862,-7027,-3047,-83,-243,169,-0.227294922,-0.857788086,-0.371948242,-5.06591797,-14.831543,10.3149414
278,1390000,1690000,278,-1842,-7040,-3068,-91,-164,97,-0.224853516,-0.859375,-0.374511719,-5.55419922,-10.0097656,5.92041016
279,1394992,1694992,279,-1896,-7023,-3131,-93,-81,27,-0.231445312,-0.857299805,-0.382202148,-5.67626953,-4.94384766,1.64794922
280,1400000,1700000,280,-1935,-6929,-3176,-94,-4,-46,-0.236206055,-0.845825195,-0.387695312,-5.73730469,-0.244140625,-2.80761719
281,1404992,1704992,281,-1924,-6815,-3171,-100,72,-122,-0.234863281,-0.83190918,-0.387084961,-6.10351562,4.39453125,-7.44628906
282,1410000,1710000,282,-1878,-6721,-3160,-112,153,-195,-0.229248047,-0.82043457,-0.385742188,-6.8359375,9.33837891,-11.9018555
283,1414992,1714992,283,-1820,-6662,-3143,-127,240,-261,-0.222167969,-0.813232422,-0.383666992,-7.75146484,14.6484375,-15.9301758
284,1420000,1720000,284,-1814,-6675,-3127,-145,333,-326,-0.221435547,-0.814819336,-0.381713867,-8.85009766,20.324707,-19.8974609
285,1424992,1724992,285,-1796,-6734,-3110,-160,428,-390,-0.219238281,-0.822021484,-0.379638672,-9.765625,26.1230469,-23.8037109
286,1430000,1730000,286,-1750,-6761,-3089,-167,530,-446,-0.213623047,-0.825317383,-0.377075195,-10.1928711,32.3486328,-27.2216797
287,1434992,1734992,287,-1742,-6760,-3061,-174,642,-498,-0.212646484,-0.825195312,-0.373657227,-10.6201172,39.1845703,-30.3955078
288,1440000,1740000,288,-1748,-6778,-3085,-185,762,-552,-0.213378906,-0.827392578,-0.376586914,-11.2915039,46.5087891,-33.6914062
289,1444992,1744992,289,-1765,-6828,-3134,-193,881,-603,-0.215454102,-0.833496094,-0.382568359,-11.7797852,53.7719727,-36.8041992
290,1450000,1750000,290,-1786,-6887,-3189,-197,1000,-647,-0.218017578,-0.840698242,-0.389282227,-12.0239258,61.0351562,-39.4897461
291,1454992,1754992,291,-1808,-6928,-3276,-194,1116,-688,-0.220703125,-0.845703125,-0.399902344,-11.8408203,68.1152344,-41.9921875
292,1460000,1760000,292,-1850,-6926,-3358,-179,1224,-730,-0.225830078,-0.845458984,-0.409912109,-10.925293,74.7070312,-44.5556641
293,1464992,1764992,293,-1901,-6873,-3380,-161,1322,-776,-0.232055664,-0.838989258,-0.412597656,-9.82666016,80.6884766,-47.3632812
294,1470000,1770000,294,-1940,-6812,-3342,-148,1409,-828,-0.236816406,-0.831542969,-0.407958984,-9.03320312,85.9985352,-50.5371094
295,1474992,1774992,295,-1991,-6798,-3238,-142,1494,-881,-0.243041992,-0.829833984,-0.395263672,-8.66699219,91.1865234,-53.7719727
296,1480000,1780000,296,-2069,-6873,-3131,-147,1573,-928,-0.252563477,-0.838989258,-0.382202148,-8.97216797,96.0083008,-56.640625
297,1484992,1784992,297,-2152,-7033,-3098,-155,1646,-971,-0.262695312,-0.858520508,-0.378173828,-9.46044922,100.463867,-59.2651367
298,1490000,1790000,298,-2227,-7225,-3118,-153,1722,-1010,-0.271850586,-0.881958008,-0.380615234,-9.33837891,105.102539,-61.6455078
299,1494992,1794992,299,-2305,-7400,-3154,-138,1793,-1047,-0.28137207,-0.903320312,-0.385009766,-8.42285156,109.436035,-63.9038086
300,1500000,1800000,300,-2387,-7536,-3171,-124,1854,-1086,-0.291381836,-0.919921875,-0.387084961,-7.56835938,113.15918,-66.2841797
301,1504992,1804992,301,-2466,-7594,-3192,-113,1904,-1127,-0.301025391,-0.927001953,-0.389648438,-6.89697266,116.210938,-68.7866211
302,1510000,1810000,302,-2522,-7590,-3236,-102,1952,-1172,-0.307861328,-0.926513672,-0.395019531,-6.22558594,119.140625,-71.5332031
303,1514992,1814992,303,-2528,-7579,-3308,-95,2002,-1220,-0.30859375,-0.925170898,-0.403808594,-5.79833984,122.192383,-74.4628906
304,1520000,1820000,304,-2471,-7563,-3361,-96,2054,-1270,-0.301635742,-0.923217773,-0.41027832,-5.859375,125.366211,-77.5146484
305,1524992,1824992,305,-2392,-7538,-3415,-107,2112,-1321,-0.291992188,-0.920166016,-0.416870117,-6.53076172,128.90625,-80.6274414
306,1530000,1830000,306,-2307,-7547,-3524,-116,2185,-1372,-0.281616211,-0.921264648,-0.430175781,-7.08007812,133.361816,-83.7402344
307,1534992,1834992,307,-2208,-7598,-3637,-119,2258,-1423,-0.26953125,-0.927490234,-0.443969727,-7.26318359,137.817383,-86.8530273
308,1540000,1840000,308,-2115,-7659,-3721,-128,2320,-1467,-0.258178711,-0.934936523,-0.454223633,-7.8125,141.601562,-89.5385742
309,1544992,1844992,309,-2021,-7715,-3807,-138,2379,-1506,-0.246704102,-0.941772461,-0.46472168,-8.42285156,145.202637,-91.9189453
310,1550000,1850000,310,-1939,-7780,-3946,-127,2446,-1542,-0.236694336,-0.949707031,-0.481689453,-7.75146484,149.291992,-94.1162109
311,1554992,1854992,311,-1883,-7821,-4064,-94,2508,-1581,-0.229858398,-0.954711914,-0.49609375,-5.73730469,153.076172,-96.496582
312,1560000,1860000,312,-1814,-7835,-4092,-62,2568,-1631,-0.221435547,-0.956420898,-0.499511719,-3.78417969,156.738281,-99.5483398
313,1564992,1864992,313,-1736,-7856,-4145,-34,2650,-1684,-0.211914062,-0.958984375,-0.505981445,-2.07519531,161.743164,-102.783203
314,1570000,1870000,314,-1679,-7852,-4225,-2,2739,-1731,-0.204956055,-0.958496094,-0.51574707,-0.122070312,167.175293,-105.651855
315,1574992,1874992,315,-1614,-7832,-4294,16,2810,-1771,-0.197021484,-0.956054688,-0.524169922,0.9765625,171.508789,-108.093262
316,1580000,1880000,316,-1525,-7828,-4434,26,2871,-1803,-0.186157227,-0.955566406,-0.541259766,1.58691406,175.231934,-110.046387
317,1584992,1884992,317,-1454,-7804,-4576,47,2923,-1827,-0.177490234,-0.952636719,-0.55859375,2.86865234,178.405762,-111.51123
318,1590000,1890000,318,-1354,-7740,-4670,64,2952,-1843,-0.165283203,-0.944824219,-0.570068359,3.90625,180.175781,-112.487793
319,1594992,1894992,319,-1231,-7634,-4755,83,2974,-1856,-0.150268555,-0.931884766,-0.580444336,5.06591797,181.518555,-113.28125
320,1600000,1900000,320,-1127,-7522,-4790,111,3005,-1872,-0.137573242,-0.918212891,-0.584716797,6.77490234,183.410645,-114.257812
321,1604992,1904992,321,-996,-7448,-4748,126,3032,-1896,-0.121582031,-0.909179688,-0.579589844,7.69042969,185.058594,-115.722656
322,1610000,1910000,322,-884,-7413,-4616,117,3041,-1914,-0.107910156,-0.904907227,-0.563476562,7.14111328,185.60791,-116.821289
323,1614992,1914992,323,-775,-7405,-4521,91,3024,-1918,-0.0946044922,-0.903930664,-0.551879883,5.55419922,184.570312,-117.06543
324,1620000,1920000,324,-677,-7393,-4588,87,2987,-1916,-0.0826416016,-0.90246582,-0.560058594,5.31005859,182.312012,-116.943359
325,1624992,1924992,325,-577,-7364,-4694,123,2939,-1928,-0.0704345703,-0.898925781,-0.572998047,7.50732422,179.382324,-117.675781
326,1630000,1930000,326,-374,-7340,-4732,171,2883,-1955,-0.0456542969,-0.895996094,-0.577636719,10.4370117,175.964355,-119.32373
327,1634992,1934992,327,-78,-7318,-4634,219,2822,-1968,-0.00952148438,-0.893310547,-0.565673828,13.3666992,172.241211,-120.117188
328,1640000,1940000,328,247,-7243,-4408,240,2729,-1950,0.0301513672,-0.884155273,-0.538085938,14.6484375,166.564941,-119.018555
329,1644992,1944992,329,589,-7150,-4269,242,2636,-1922,0.0718994141,-0.872802734,-0.521118164,14.7705078,160.888672,-117.30957
330,1650000,1950000,330,925,-6992,-4250,279,2613,-1900,0.112915039,-0.853515625,-0.518798828,17.0288086,159.484863,-115.966797
331,1654992,1954992,331,1221,-6676,-4249,325,2604,-1879,0.149047852,-0.814941406,-0.518676758,19.8364258,158.935547,-114.685059
332,1660000,1960000,332,1453,-6262,-4264,338,2556,-1855,0.177368164,-0.764404297,-0.520507812,20.6298828,156.005859,-113.220215
333,1664992,1964992,333,1646,-5908,-4271,309,2479,-1827,0.200927734,-0.721191406,-0.521362305,18.8598633,151.306152,-111.51123
334,1670000,1970000,334,1872,-5763,-4282,247,2415,-1797,0.228515625,-0.703491211,-0.522705078,15.0756836,147.399902,-109.680176
335,1674992,1974992,335,2110,-5785,-4216,182,2389,-1758,0.257568359,-0.706176758,-0.514648438,11.1083984,145.812988,-107.299805
336,1680000,1980000,336,2342,-5863,-4030,120,2367,-1693,0.285888672,-0.715698242,-0.491943359,7.32421875,144.470215,-103.33252
337,1684992,1984992,337,2533,-5959,-3921,61,2323,-1606,0.309204102,-0.727416992,-0.478637695,3.72314453,141.784668,-98.0224609
338,1690000,1990000,338,2691,-6071,-3980,37,2264,-1533,0.328491211,-0.741088867,-0.485839844,2.25830078,138.183594,-93.5668945
339,1694992,1994992,339,2844,-6219,-4118,57,2207,-1482,0.347167969,-0.759155273,-0.502685547,3.47900391,134.70459,-90.4541016
340,1700000,2000000,340,2949,-6388,-4265,97,2147,-1421,0.359985352,-0.779785156,-0.520629883,5.92041016,131.04248,-86.730957
341,1704992,2004992,341,3034,-6603,-4257,133,2067,-1353,0.370361328,-0.806030273,-0.51965332,8.11767578,126.159668,-82.5805664
342,1710000,2010000,342,3075,-6879,-4128,140,1995,-1289,0.375366211,-0.83972168,-0.50390625,8.54492188,121.765137,-78.6743164
343,1714992,2014992,343,2988,-7063,-3987,167,1977,-1235,0.364746094,-0.862182617,-0.486694336,10.1928711,120.666504,-75.378418
344,1720000,2020000,344,2850,-7089,-3815,272,1986,-1178,0.347900391,-0.865356445,-0.465698242,16.6015625,121.21582,-71.8994141
345,1724992,2024992,345,2579,-6943,-3605,437,1942,-1095,0.314819336,-0.84753418,-0.440063477,26.6723633,118.530273,-66.8334961
346,1730000,2030000,346,2278,-6682,-3303,580,1798,-1035,0.278076172,-0.815673828,-0.403198242,35.4003906,109.741211,-63.1713867
347,1734992,2034992,347,2265,-6478,-3043,635,1593,-1022,0.276489258,-0.790771484,-0.371459961,38.7573242,97.2290039,-62.3779297
348,1740000,2040000,348,2509,-6359,-2865,634,1404,-1021,0.306274414,-0.776245117,-0.349731445,38.6962891,85.6933594,-62.3168945
349,1744992,2044992,349,2855,-6184,-2669,608,1272,-1035,0.348510742,-0.754882812,-0.325805664,37.109375,77.6367188,-63.1713867
350,1750000,2050000,350,3243,-5931,-2441,554,1184,-1054,0.395874023,-0.723999023,-0.297973633,33.8134766,72.265625,-64.3310547
351,1754992,2054992,351,3648,-5720,-2195,465,1119,-1058,0.4453125,-0.698242188,-0.267944336,28.3813477,68.2983398,-64.5751953
352,1760000,2060000,352,4002,-5620,-2067,347,1065,-1054,0.488525391,-0.686035156,-0.252319336,21.1791992,65.0024414,-64.3310547
353,1764992,2064992,353,4270,-5641,-2074,221,1017,-1040,0.521240234,-0.688598633,-0.253173828,13.4887695,62.0727539,-63.4765625
354,1770000,2070000,354,4457,-5767,-2160,112,964,-1024,0.544067383,-0.703979492,-0.263671875,6.8359375,58.8378906,-62.5
355,1774992,2074992,355,4621,-6021,-2354,41,927,-1009,0.564086914,-0.734985352,-0.287353516,2.50244141,56.5795898,-61.5844727
356,1780000,2080000,356,4681,-6311,-2518,5,919,-978,0.571411133,-0.770385742,-0.307373047,0.305175781,56.0913086,-59.6923828
357,1784992,2084992,357,4636,-6558,-2609,-29,912,-935,0.565917969,-0.800537109,-0.318481445,-1.77001953,55.6640625,-57.0678711
358,1790000,2090000,358,4622,-6814,-2703,-76,911,-898,0.564208984,-0.831787109,-0.329956055,-4.63867188,55.6030273,-54.8095703
359,1794992,2094992,359,4537,-7042,-2821,-93,916,-854,0.553833008,-0.859619141,-0.344360352,-5.67626953,55.9082031,-52.1240234
360,1800000,2100000,360,4372,-7281,-2901,-59,914,-810,0.533691406,-0.888793945,-0.354125977,-3.60107422,55.7861328,-49.4384766
361,1804992,2104992,361,4246,-7558,-2898,0,909,-784,0.518310547,-0.922607422,-0.353759766,0,55.480957,-47.8515625
362,1810000,2110000,362,4192,-7820,-2886,84,916,-762,0.51171875,-0.954589844,-0.352294922,5.12695312,55.9082031,-46.5087891
363,1814992,2114992,363,4125,-8013,-2767,179,932,-743,0.503540039,-0.978149414,-0.337768555,10.925293,56.8847656,-45.3491211
364,1820000,2120000,364,4099,-8163,-2573,252,939,-738,0.500366211,-0.996459961,-0.314086914,15.3808594,57.3120117,-45.0439453
365,1824992,2124992,365,4138,-8250,-2439,312,939,-739,0.505126953,-1.00708008,-0.297729492,19.0429688,57.3120117,-45.1049805
366,1830000,2130000,366,4186,-8219,-2364,383,928,-755,0.510986328,-1.0032959,-0.288574219,23.3764648,56.640625,-46.081543
367,1834992,2134992,367,4371,-8118,-2262,456,895,-802,0.533569336,-0.990966797,-0.276123047,27.8320312,54.6264648,-48.9501953
368,1840000,2140000,368,4550,-7858,-2110,515,858,-839,0.555419922,-0.959228516,-0.257568359,31.4331055,52.3681641,-51.2084961
369,1844992,2144992,369,4634,-7445,-2039,559,838,-859,0.565673828,-0.908813477,-0.248901367,34.1186523,51.1474609,-52.4291992
370,1850000,2150000,370,4713,-6976,-2041,581,815,-889,0.575317383,-0.8515625,-0.249145508,35.4614258,49.7436523,-54.2602539
371,1854992,2154992,371,4799,-6535,-2028,578,774,-924,0.58581543,-0.797729492,-0.247558594,35.2783203,47.2412109,-56.3964844
372,1860000,2160000,372,4861,-6130,-1955,542,729,-955,0.593383789,-0.748291016,-0.238647461,33.0810547,44.4946289,-58.2885742
373,1864992,2164992,373,4937,-5740,-1887,474,692,-979,0.602661133,-0.700683594,-0.23034668,28.9306641,42.2363281,-59.753418
374,1870000,2170000,374,5000,-5353,-1818,384,662,-994,0.610351562,-0.653442383,-0.221923828,23.4375,40.4052734,-60.6689453
375,1874992,2174992,375,5042,-5049,-1751,280,646,-994,0.615478516,-0.616333008,-0.213745117,17.0898438,39.4287109,-60.6689453
376,1880000,2180000,376,5103,-4883,-1713,185,651,-968,0.622924805,-0.596069336,-0.209106445,11.2915039,39.7338867,-59.0820312
377,1884992,2184992,377,5121,-4868,-1624,104,668,-925,0.62512207,-0.594238281,-0.198242188,6.34765625,40.7714844,-56.4575195
378,1890000,2190000,378,5099,-5055,-1524,24,682,-867,0.622436523,-0.61706543,-0.186035156,1.46484375,41.6259766,-52.9174805
379,1894992,2194992,379,5047,-5374,-1526,-45,674,-790,0.616088867,-0.656005859,-0.186279297,-2.74658203,41.1376953,-48.2177734
380,1900000,2200000,380,4971,-5727,-1582,-81,648,-716,0.606811523,-0.69909668,-0.193115234,-4.94384766,39.5507812,-43.7011719
381,1904992,2204992,381,4902,-6025,-1577,-88,617,-657,0.598388672,-0.735473633,-0.192504883,-5.37109375,37.6586914,-40.1000977
382,1910000,2210000,382,4880,-6254,-1528,-87,587,-606,0.595703125,-0.763427734,-0.186523438,-5.31005859,35.8276367,-36.9873047
383,1914992,2214992,383,4880,-6407,-1459,-78,564,-562,0.595703125,-0.782104492,-0.178100586,-4.76074219,34.4238281,-34.3017578
384,1920000,2220000,384,4896,-6463,-1358,-61,546,-532,0.59765625,-0.78894043,-0.165771484,-3.72314453,33.3251953,-32.4707031
385,1924992,2224992,385,4944,-6454,-1240,-44,528,-513,0.603515625,-0.787841797,-0.151367188,-2.68554688,32.2265625,-31.3110352
386,1930000,2230000,386,5004,-6410,-1120,-27,499,-500,0.610839844,-0.782470703,-0.13671875,-1.64794922,30.456543,-30.5175781
387,1934992,2234992,387,5069,-6269,-985,-14,474,-494,0.618774414,-0.765258789,-0.120239258,-0.854492188,28.9306641,-30.1513672
388,1940000,2240000,388,5107,-6048,-868,-17,457,-500,0.623413086,-0.73828125,-0.105957031,-1.03759766,27.8930664,-30.5175781
389,1944992,2244992,389,5086,-5845,-749,-42,430,-510,0.620849609,-0.713500977,-0.0914306641,-2.56347656,26.2451172,-31.1279297
390,1950000,2250000,390,5021,-5694,-627,-86,389,-517,0.612915039,-0.695068359,-0.0765380859,-5.24902344,23.7426758,-31.5551758
391,1954992,2254992,391,4935,-5615,-585,-135,336,-511,0.602416992,-0.685424805,-0.0714111328,-8.23974609,20.5078125,-31.1889648
392,1960000,2260000,392,4856,-5576,-577,-179,271,-494,0.592773438,-0.680664062,-0.0704345703,-10.925293,16.5405273,-30.1513672
393,1964992,2264992,393,4771,-5564,-558,-229,207,-473,0.582397461,-0.679199219,-0.0681152344,-13.9770508,12.6342773,-28.8696289
394,1970000,2270000,394,4724,-5630,-584,-290,151,-451,0.576660156,-0.687255859,-0.0712890625,-17.7001953,9.21630859,-27.5268555
395,1974992,2274992,395,4767,-5773,-690,-344,107,-423,0.58190918,-0.704711914,-0.0842285156,-20.9960938,6.53076172,-25.8178711
396,1980000,2280000,396,4824,-5953,-814,-373,74,-390,0.588867188,-0.72668457,-0.0993652344,-22.7661133,4.51660156,-23.8037109
397,1984992,2284992,397,4856,-6186,-907,-378,52,-358,0.592773438,-0.755126953,-0.110717773,-23.0712891,3.17382812,-21.8505859
398,1990000,2290000,398,4856,-6440,-999,-360,39,-332,0.592773438,-0.786132812,-0.121948242,-21.9726562,2.38037109,-20.2636719
399,1994992,2294992,399,4832,-6658,-1095,-325,30,-310,0.58984375,-0.812744141,-0.133666992,-19.8364258,1.83105469,-18.9208984
400,2000000,2300000,400,4820,-6823,-1183,-281,19,-292,0.588378906,-0.832885742,-0.14440918,-17.1508789,1.15966797,-17.8222656
401,2004992,2304992,401,4814,-6929,-1318,-219,5,-274,0.587646484,-0.845825195,-0.160888672,-13.3666992,0.305175781,-16.7236328
402,2010000,2310000,402,4792,-6967,-1446,-140,-10,-256,0.584960938,-0.850463867,-0.176513672,-8.54492188,-0.610351562,-15.625
403,2014992,2314992,403,4795,-6950,-1511,-62,-24,-244,0.585327148,-0.848388672,-0.184448242,-3.78417969,-1.46484375,-14.8925781
404,2020000,2320000,404,4828,-6907,-1547,2,-29,-237,0.589355469,-0.843139648,-0.188842773,0.122070312,-1.77001953,-14.465332
405,2024992,2324992,405,4905,-6834,-1626,51,-32,-231,0.598754883,-0.834228516,-0.198486328,3.11279297,-1.953125,-14.0991211
406,2030000,2330000,406,4984,-6720,-1727,101,-27,-225,0.608398438,-0.8203125,-0.21081543,6.16455078,-1.64794922,-13.7329102
407,2034992,2334992,407,5010,-6568,-1781,147,-14,-222,0.611572266,-0.801757812,-0.217407227,8.97216797,-0.854492188,-13.5498047
408,2040000,2340000,408,5028,-6415,-1798,172,1,-218,0.613769531,-0.783081055,-0.219482422,10.4980469,0.0610351562,-13.3056641
409,2044992,2344992,409,5104,-6272,-1778,174,8,-203,0.623046875,-0.765625,-0.217041016,10.6201172,0.48828125,-12.3901367
410,2050000,2350000,410,5169,-6126,-1789,168,17,-177,0.630981445,-0.747802734,-0.218383789,10.2539062,1.03759766,-10.8032227
411,2054992,2354992,411,5123,-6014,-1821,172,38,-152,0.625366211,-0.734130859,-0.222290039,10.4980469,2.31933594,-9.27734375
412,2060000,2360000,412,5038,-5965,-1807,169,54,-134,0.614990234,-0.728149414,-0.220581055,10.3149414,3.29589844,-8.17871094
413,2064992,2364992,413,5014,-5995,-1809,152,58,-119,0.612060547,-0.731811523,-0.220825195,9.27734375,3.54003906,-7.26318359
414,2070000,2370000,414,5030,-6065,-1844,135,62,-108,0.614013672,-0.740356445,-0.225097656,8.23974609,3.78417969,-6.59179688
415,2074992,2374992,415,5110,-6080,-1882,117,73,-95,0.623779297,-0.7421875,-0.229736328,7.14111328,4.45556641,-5.79833984
416,2080000,2380000,416,5285,-5932,-1961,89,90,-59,0.645141602,-0.724121094,-0.239379883,5.43212891,5.49316406,-3.60107422
417,2084992,2384992,417,5385,-5715,-2068,73,106,-1,0.657348633,-0.697631836,-0.252441406,4.45556641,6.46972656,-0.0610351562
418,2090000,2390000,418,5306,-5713,-2113,74,120,37,0.647705078,-0.697387695,-0.25793457,4.51660156,7.32421875,2.25830078
419,2094992,2394992,419,5069,-5960,-2110,63,146,37,0.618774414,-0.727539062,-0.257568359,3.84521484,8.91113281,2.25830078
420,2100000,2400000,420,4909,-6238,-2097,11,148,20,0.599243164,-0.761474609,-0.255981445,0.671386719,9.03320312,1.22070312
421,2104992,2404992,421,5038,-6288,-2155,-45,113,27,0.614990234,-0.767578125,-0.263061523,-2.74658203,6.89697266,1.64794922
422,2110000,2410000,422,5203,-6132,-2325,-41,105,58,0.635131836,-0.748535156,-0.283813477,-2.50244141,6.40869141,3.54003906
423,2114992,2414992,423,5142,-6068,-2408,2,125,69,0.627685547,-0.740722656,-0.293945312,0.122070312,7.62939453,4.21142578
424,2120000,2420000,424,5062,-6174,-2297,17,134,48,0.617919922,-0.753662109,-0.280395508,1.03759766,8.17871094,2.9296875
425,2124992,2424992,425,5156,-6223,-2171,-3,131,31,0.629394531,-0.759643555,-0.265014648,-0.183105469,7.99560547,1.89208984
426,2130000,2430000,426,5273,-6140,-2146,-12,137,27,0.643676758,-0.749511719,-0.261962891,-0.732421875,8.36181641,1.64794922
427,2134992,2434992,427,5276,-6032,-2146,7,162,22,0.644042969,-0.736328125,-0.261962891,0.427246094,9.88769531,1.34277344
428,2140000,2440000,428,5179,-5952,-2094,29,190,13,0.632202148,-0.7265625,-0.255615234,1.77001953,11.5966797,0.793457031
429,2144992,2444992,429,5061,-5904,-2030,44,208,7,0.617797852,-0.720703125,-0.247802734,2.68554688,12.6953125,0.427246094
430,2150000,2450000,430,4917,-5889,-1996,64,219,-3,0.600219727,-0.71887207,-0.243652344,3.90625,13.3666992,-0.183105469
431,2154992,2454992,431,4813,-5878,-1870,85,221,-18,0.587524414,-0.717529297,-0.228271484,5.18798828,13.4887695,-1.09863281
432,2160000,2460000,432,4818,-5837,-1639,83,205,-26,0.588134766,-0.712524414,-0.200073242,5.06591797,12.512207,-1.58691406
433,2164992,2464992,433,4848,-5822,-1448,69,181,-27,0.591796875,-0.710693359,-0.176757812,4.21142578,11.0473633,-1.64794922
434,2170000,2470000,434,4861,-5886,-1330,63,161,-38,0.593383789,-0.718505859,-0.162353516,3.84521484,9.82666016,-2.31933594
435,2174992,2474992,435,4867,-6015,-1218,69,139,-65,0.594116211,-0.73425293,-0.148681641,4.21142578,8.48388672,-3.96728516
436,2180000,2480000,436,4867,-6134,-1080,85,112,-98,0.594116211,-0.748779297,-0.131835938,5.18798828,6.8359375,-5.98144531
437,2184992,2484992,437,4848,-6153,-949,110,86,-126,0.591796875,-0.751098633,-0.115844727,6.71386719,5.24902344,-7.69042969
438,2190000,2490000,438,4837,-6042,-828,142,52,-146,0.590454102,-0.737548828,-0.101074219,8.66699219,3.17382812,-8.91113281
439,2194992,2494992,439,4872,-5847,-706,171,9,-158,0.594726562,-0.713745117,-0.0861816406,10.4370117,0.549316406,-9.64355469
440,2200000,2500000,440,4994,-5625,-594,184,-36,-161,0.609619141,-0.686645508,-0.0725097656,11.2304688,-2.19726562,-9.82666016
441,2204992,2504992,441,5133,-5419,-495,173,-73,-153,0.626586914,-0.661499023,-0.0604248047,10.559082,-4.45556641,-9.33837891
442,2210000,2510000,442,5248,-5265,-440,141,-93,-133,0.640625,-0.642700195,-0.0537109375,8.60595703,-5.67626953,-8.11767578
443,2214992,2514992,443,5278,-5126,-411,108,-96,-94,0.644287109,-0.625732422,-0.0501708984,6.59179688,-5.859375,-5.73730469
444,2220000,2520000,444,5205,-5111,-328,73,-103,-53,0.635375977,-0.623901367,-0.0400390625,4.45556641,-6.28662109,-3.23486328
445,2224992,2524992,445,5143,-5226,-243,39,-117,-19,0.627807617,-0.637939453,-0.0296630859,2.38037109,-7.14111328,-1.15966797
446,2230000,2530000,446,5090,-5335,-227,16,-126,17,0.621337891,-0.651245117,-0.0277099609,0.9765625,-7.69042969,1.03759766
447,2234992,2534992,447,5025,-5434,-217,-2,-142,54,0.61340332,-0.663330078,-0.0264892578,-0.122070312,-8.66699219,3.29589844
448,2240000,2540000,448,4957,-5498,-159,-30,-168,93,0.605102539,-0.671142578,-0.0194091797,-1.83105469,-10.2539062,5.67626953
449,2244992,2544992,449,4875,-5487,-57,-78,-201,130,0.595092773,-0.669799805,-0.00695800781,-4.76074219,-12.2680664,7.93457031
450,2250000,2550000,450,4825,-5509,-88,-131,-244,171,0.588989258,-0.672485352,-0.0107421875,-7.99560547,-14.8925781,10.4370117
451,2254992,2554992,451,4822,-5578,-233,-153,-293,216,0.588623047,-0.680908203,-0.0284423828,-9.33837891,-17.8833008,13.1835938
452,2260000,2560000,452,4836,-5531,-273,-159,-346,266,0.590332031,-0.675170898,-0.0333251953,-9.70458984,-21.1181641,16.2353516
453,2264992,2564992,453,4848,-5406,-267,-191,-411,312,0.591796875,-0.659912109,-0.0325927734,-11.6577148,-25.0854492,19.0429688
454,2270000,2570000,454,4888,-5289,-338,-241,-472,350,0.596679688,-0.645629883,-0.0412597656,-14.7094727,-28.8085938,21.3623047
455,2274992,2574992,455,4951,-5164,-470,-292,-518,391,0.604370117,-0.630371094,-0.0573730469,-17.8222656,-31.6162109,23.8647461
456,2280000,2580000,456,4997,-5063,-587,-351,-555,431,0.609985352,-0.618041992,-0.0716552734,-21.4233398,-33.8745117,26.3061523
457,2284992,2584992,457,5057,-4992,-698,-421,-587,468,0.61730957,-0.609375,-0.0852050781,-25.6958008,-35.8276367,28.5644531
458,2290000,2590000,458,5137,-4926,-820,-492,-612,506,0.627075195,-0.601318359,-0.100097656,-30.0292969,-37.3535156,30.8837891
459,2294992,2594992,459,5180,-4855,-947,-561,-630,547,0.632324219,-0.592651367,-0.115600586,-34.2407227,-38.4521484,33.3862305
460,2300000,2600000,460,5179,-4773,-1070,-631,-641,580,0.632202148,-0.582641602,-0.130615234,-38.5131836,-39.1235352,35.4003906
461,2304992,2604992,461,5268,-4716,-1131,-703,-645,611,0.643066406,-0.575683594,-0.138061523,-42.9077148,-39.3676758,37.2924805
462,2310000,2610000,462,5367,-4626,-1129,-783,-647,659,0.655151367,-0.564697266,-0.137817383,-47.7905273,-39.4897461,40.222168
463,2314992,2614992,463,5377,-4504,-1074,-874,-648,714,0.65637207,-0.549804688,-0.131103516,-53.3447266,-39.5507812,43.5791016
464,2320000,2620000,464,5435,-4394,-1030,-967,-649,777,0.663452148,-0.536376953,-0.125732422,-59.0209961,-39.6118164,47.4243164
465,2324992,2624992,465,5410,-4266,-1013,-1057,-661,862,0.660400391,-0.520751953,-0.123657227,-64.5141602,-40.3442383,52.6123047
466,2330000,2630000,466,5256,-4217,-981,-1162,-706,943,0.641601562,-0.514770508,-0.119750977,-70.9228516,-43.0908203,57.5561523
467,2334992,2634992,467,5147,-4384,-1044,-1281,-784,1008,0.628295898,-0.53515625,-0.127441406,-78.1860352,-47.8515625,61.5234375
468,2340000,2640000,468,5101,-4697,-1248,-1384,-871,1078,0.622680664,-0.573364258,-0.15234375,-84.4726562,-53.1616211,65.7958984
469,2344992,2644992,469,5057,-5015,-1542,-1458,-957,1158,0.61730957,-0.612182617,-0.188232422,-88.9892578,-58.4106445,70.6787109
470,2350000,2650000,470,5025,-5338,-1864,-1512,-1041,1240,0.61340332,-0.651611328,-0.227539062,-92.2851562,-63.5375977,75.6835938
471,2354992,2654992,471,5009,-5671,-2194,-1550,-1130,1321,0.611450195,-0.692260742,-0.267822266,-94.6044922,-68.9697266,80.6274414
472,2360000,2660000,472,4937,-5995,-2582,-1559,-1225,1389,0.602661133,-0.731811523,-0.315185547,-95.1538086,-74.7680664,84.777832
473,2364992,2664992,473,4935,-6397,-2977,-1528,-1319,1424,0.602416992,-0.780883789,-0.36340332,-93.2617188,-80.5053711,86.9140625
474,2370000,2670000,474,5066,-6844,-3304,-1468,-1386,1449,0.618408203,-0.835449219,-0.403320312,-89.5996094,-84.5947266,88.4399414
475,2374992,2674992,475,5159,-7209,-3536,-1406,-1416,1481,0.629760742,-0.880004883,-0.431640625,-85.8154297,-86.4257812,90.3930664
476,2380000,2680000,476,5188,-7521,-3694,-1365,-1408,1507,0.633300781,-0.91809082,-0.450927734,-83.3129883,-85.9375,91.9799805
477,2384992,2684992,477,5121,-7780,-3891,-1334,-1369,1536,0.62512207,-0.949707031,-0.474975586,-81.4208984,-83.5571289,93.75
478,2390000,2690000,478,4913,-7898,-4074,-1277,-1324,1578,0.599731445,-0.964111328,-0.497314453,-77.9418945,-80.8105469,96.3134766
479,2394992,2694992,479,4673,-7870,-4151,-1179,-1295,1631,0.57043457,-0.960693359,-0.506713867,-71.9604492,-79.0405273,99.5483398
480,2400000,2700000,480,4426,-7746,-4116,-1062,-1309,1693,0.540283203,-0.945556641,-0.502441406,-64.8193359,-79.8950195,103.33252
481,2404992,2704992,481,4155,-7568,-4054,-955,-1355,1761,0.507202148,-0.923828125,-0.494873047,-58.2885742,-82.7026367,107.48291
482,2410000,2710000,482,3867,-7356,-4059,-880,-1442,1821,0.472045898,-0.897949219,-0.495483398,-53.7109375,-88.0126953,111.14502
483,2414992,2714992,483,3628,-7202,-4173,-840,-1579,1876,0.442871094,-0.879150391,-0.509399414,-51.2695312,-96.3745117,114.501953
484,2420000,2720000,484,3432,-7123,-4318,-819,-1709,1940,0.418945312,-0.869506836,-0.527099609,-49.987793,-104.309082,118.408203
485,2424992,2724992,485,3225,-7026,-4314,-820,-1805,1998,0.393676758,-0.857666016,-0.526611328,-50.0488281,-110.168457,121.948242
486,2430000,2730000,486,3024,-6919,-4367,-844,-1904,2031,0.369140625,-0.844604492,-0.533081055,-51.5136719,-116.210938,123.962402
487,2434992,2734992,487,2798,-6855,-4782,-847,-2026,2052,0.341552734,-0.836791992,-0.583740234,-51.6967773,-123.657227,125.244141
488,2440000,2740000,488,2547,-6760,-5239,-811,-2144,2068,0.310913086,-0.825195312,-0.639526367,-49.4995117,-130.859375,126.220703
489,2444992,2744992,489,2415,-6664,-5470,-768,-2239,2082,0.294799805,-0.813476562,-0.667724609,-46.875,-136.657715,127.075195
490,2450000,2750000,490,2369,-6592,-5611,-756,-2320,2104,0.28918457,-0.8046875,-0.684936523,-46.1425781,-141.601562,128.417969
491,2454992,2754992,491,2307,-6528,-5684,-779,-2392,2135,0.281616211,-0.796875,-0.693847656,-47.5463867,-145.996094,130.310059
492,2460000,2760000,492,2121,-6439,-5672,-842,-2463,2166,0.258911133,-0.786010742,-0.692382812,-51.3916016,-150.32959,132.202148
493,2464992,2764992,493,1900,-6440,-5757,-924,-2533,2176,0.231933594,-0.786132812,-0.702758789,-56.3964844,-154.602051,132.8125
494,2470000,2770000,494,1793,-6595,-5936,-965,-2566,2175,0.21887207,-0.805053711,-0.724609375,-58.8989258,-156.616211,132.751465
495,2474992,2774992,495,1643,-6788,-6044,-967,-2571,2179,0.200561523,-0.828613281,-0.737792969,-59.0209961,-156.921387,132.995605
496,2480000,2780000,496,1444,-6988,-6132,-972,-2575,2189,0.176269531,-0.853027344,-0.748535156,-59.3261719,-157.165527,133.605957
497,2484992,2784992,497,1219,-7242,-6269,-976,-2586,2195,0.148803711,-0.884033203,-0.765258789,-59.5703125,-157.836914,133.972168
498,2490000,2790000,498,1047,-7584,-6376,-930,-2620,2185,0.127807617,-0.92578125,-0.778320312,-56.7626953,-159.912109,133.361816
499,2494992,2794992,499,951,-7899,-6311,-822,-2648,2177,0.116088867,-0.964233398,-0.770385742,-50.1708984,-161.621094,132.873535
500,2500000,2800000,500,790,-8110,-6211,-673,-2671,2173,0.0964355469,-0.989990234,-0.758178711,-41.0766602,-163.024902,132.629395
501,2504992,2804992,501,597,-8228,-6108,-498,-2722,2147,0.0728759766,-1.00439453,-0.745605469,-30.3955078,-166.137695,131.04248
502,2510000,2810000,502,564,-8335,-5981,-330,-2752,2088,0.0688476562,-1.01745605,-0.730102539,-20.1416016,-167.96875,127.441406
503,2514992,2814992,503,615,-8358,-5861,-168,-2733,2023,0.0750732422,-1.02026367,-0.715454102,-10.2539062,-166.809082,123.474121
504,2520000,2820000,504,579,-8205,-5669,-23,-2717,1976,0.0706787109,-1.00158691,-0.692016602,-1.40380859,-165.83252,120.605469
505,2524992,2824992,505,503,-7948,-5479,80,-2718,1936,0.0614013672,-0.970214844,-0.668823242,4.8828125,-165.893555,118.164062
506,2530000,2830000,506,451,-7667,-5347,162,-2709,1890,0.0550537109,-0.935913086,-0.652709961,9.88769531,-165.344238,115.356445
507,2534992,2834992,507,411,-7373,-5167,223,-2687,1841,0.0501708984,-0.900024414,-0.630737305,13.6108398,-164.001465,112.365723
508,2540000,2840000,508,415,-7167,-4977,263,-2659,1790,0.0506591797,-0.87487793,-0.607543945,16.0522461,-162.29248,109.25293
509,2544992,2844992,509,337,-7028,-4820,281,-2627,1751,0.0411376953,-0.857910156,-0.588378906,17.1508789,-160.339355,106.872559
510,2550000,2850000,510,136,-6917,-4753,270,-2604,1719,0.0166015625,-0.844360352,-0.580200195,16.4794922,-158.935547,104.919434
511,2554992,2854992,511,-54,-6839,-4814,251,-2586,1682,-0.00659179688,-0.834838867,-0.587646484,15.3198242,-157.836914,102.661133
512,2560000,2860000,512,-278,-6760,-4853,217,-2585,1643,-0.0339355469,-0.825195312,-0.592407227,13.2446289,-157.775879,100.280762
513,2564992,2864992,513,-436,-6729,-4867,177,-2585,1591,-0.0532226562,-0.821411133,-0.594116211,10.8032227,-157.775879,97.1069336
514,2570000,2870000,514,-499,-6729,-4856,159,-2561,1532,-0.0609130859,-0.821411133,-0.592773438,9.70458984,-156.311035,93.5058594
515,2574992,2874992,515,-525,-6729,-4814,145,-2521,1471,-0.0640869141,-0.821411133,-0.587646484,8.85009766,-153.869629,89.7827148
516,2580000,2880000,516,-499,-6723,-4795,123,-2477,1419,-0.0609130859,-0.820678711,-0.585327148,7.50732422,-151.184082,86.6088867
517,2584992,2884992,517,-529,-6723,-4865,108,-2441,1376,-0.0645751953,-0.820678711,-0.59387207,6.59179688,-148.986816,83.984375
518,2590000,2890000,518,-616,-6743,-4905,119,-2400,1327,-0.0751953125,-0.823120117,-0.598754883,7.26318359,-146.484375,80.9936523
519,2594992,2894992,519,-648,-6766,-4826,130,-2347,1269,-0.0791015625,-0.825927734,-0.589111328,7.93457031,-143.249512,77.4536133
520,2600000,2900000,520,-602,-6822,-4787,138,-2282,1206,-0.0734863281,-0.832763672,-0.584350586,8.42285156,-139.282227,73.6083984
521,2604992,2904992,521,-639,-6869,-4764,167,-2218,1163,-0.0780029297,-0.838500977,-0.581542969,10.1928711,-135.375977,70.9838867
522,2610000,2910000,522,-790,-6864,-4702,204,-2170,1119,-0.0964355469,-0.837890625,-0.573974609,12.4511719,-132.446289,68.2983398
523,2614992,2914992,523,-900,-6860,-4637,254,-2120,1056,-0.109863281,-0.837402344,-0.566040039,15.5029297,-129.394531,64.453125
524,2620000,2920000,524,-1001,-6784,-4567,313,-2072,998,-0.122192383,-0.828125,-0.557495117,19.1040039,-126.464844,60.9130859
525,2624992,2924992,525,-1085,-6573,-4446,345,-2025,942,-0.132446289,-0.802368164,-0.542724609,21.0571289,-123.596191,57.4951172
526,2630000,2930000,526,-1145,-6370,-4399,340,-1965,897,-0.139770508,-0.777587891,-0.536987305,20.7519531,-119.934082,54.7485352
527,2634992,2934992,527,-1312,-6295,-4524,328,-1922,859,-0.16015625,-0.768432617,-0.552246094,20.0195312,-117.30957,52.4291992
528,2640000,2940000,528,-1403,-6297,-4552,334,-1887,826,-0.171264648,-0.768676758,-0.555664062,20.3857422,-115.17334,50.4150391
529,2644992,2944992,529,-1445,-6235,-4454,332,-1829,813,-0.176391602,-0.761108398,-0.543701172,20.2636719,-111.633301,49.621582
530,2650000,2950000,530,-1571,-6119,-4370,304,-1794,806,-0.191772461,-0.746948242,-0.533447266,18.5546875,-109.49707,49.1943359
531,2654992,2954992,531,-1708,-6070,-4271,260,-1783,784,-0.208496094,-0.740966797,-0.521362305,15.8691406,-108.825684,47.8515625
532,2660000,2960000,532,-1770,-6082,-4164,217,-1755,749,-0.216064453,-0.742431641,-0.508300781,13.2446289,-107.116699,45.715332
533,2664992,2964992,533,-1781,-6151,-4195,186,-1722,719,-0.217407227,-0.750854492,-0.512084961,11.3525391,-105.102539,43.8842773
534,2670000,2970000,534,-1863,-6295,-4278,176,-1700,701,-0.227416992,-0.768432617,-0.522216797,10.7421875,-103.759766,42.7856445
535,2674992,2974992,535,-1922,-6406,-4246,188,-1674,680,-0.234619141,-0.781982422,-0.518310547,11.4746094,-102.172852,41.5039062
536,2680000,2980000,536,-1986,-6436,-4171,196,-1638,654,-0.242431641,-0.785644531,-0.509155273,11.9628906,-99.9755859,39.9169922
537,2684992,2984992,537,-2114,-6428,-4135,197,-1608,626,-0.258056641,-0.784667969,-0.504760742,12.0239258,-98.1445312,38.2080078
538,2690000,2990000,538,-2235,-6386,-4045,191,-1579,592,-0.272827148,-0.779541016,-0.493774414,11.6577148,-96.3745117,36.1328125
539,2694992,2994992,539,-2336,-6355,-3996,173,-1545,554,-0.28515625,-0.775756836,-0.487792969,10.559082,-94.2993164,33.8134766
540,2700000,3000000,540,-2377,-6380,-4004,153,-1513,520,-0.290161133,-0.778808594,-0.488769531,9.33837891,-92.3461914,31.7382812
541,2704992,3004992,541,-2400,-6400,-3968,145,-1480,501,-0.29296875,-0.78125,-0.484375,8.85009766,-90.3320312,30.5786133
542,2710000,3010000,542,-2454,-6382,-3899,142,-1432,485,-0.299560547,-0.779052734,-0.475952148,8.66699219,-87.4023438,29.6020508
543,2714992,3014992,543,-2524,-6325,-3889,119,-1378,466,-0.308105469,-0.772094727,-0.474731445,7.26318359,-84.1064453,28.4423828
544,2720000,3020000,544,-2594,-6308,-4069,110,-1325,454,-0.316650391,-0.770019531,-0.496704102,6.71386719,-80.871582,27.7099609
545,2724992,3024992,545,-2696,-6343,-4115,122,-1288,453,-0.329101562,-0.774291992,-0.502319336,7.44628906,-78.6132812,27.6489258
546,2730000,3030000,546,-2886,-6398,-4024,121,-1259,440,-0.352294922,-0.781005859,-0.491210938,7.38525391,-76.8432617,26.8554688
547,2734992,3034992,547,-2927,-6449,-3959,121,-1208,407,-0.357299805,-0.787231445,-0.483276367,7.38525391,-73.7304688,24.8413086
548,2740000,3040000,548,-2857,-6459,-3931,129,-1143,376,-0.348754883,-0.788452148,-0.479858398,7.87353516,-69.7631836,22.9492188
549,2744992,3044992,549,-2853,-6517,-4001,147,-1068,351,-0.348266602,-0.795532227,-0.48840332,8.97216797,-65.1855469,21.4233398
550,2750000,3050000,550,-2918,-6557,-4067,169,-1018,334,-0.356201172,-0.800415039,-0.496459961,10.3149414,-62.1337891,20.3857422
551,2754992,3054992,551,-3038,-6503,-3960,175,-964,322,-0.370849609,-0.793823242,-0.483398438,10.6811523,-58.8378906,19.6533203
552,2760000,3060000,552,-3151,-6377,-3876,162,-885,311,-0.384643555,-0.778442383,-0.473144531,9.88769531,-54.0161133,18.9819336
553,2764992,3064992,553,-3249,-6250,-4007,146,-830,299,-0.396606445,-0.762939453,-0.489135742,8.91113281,-50.6591797,18.2495117
554,2770000,3070000,554,-3319,-6171,-4006,149,-785,277,-0.405151367,-0.753295898,-0.489013672,9.09423828,-47.9125977,16.9067383
555,2774992,3074992,555,-3385,-6097,-3933,136,-738,255,-0.413208008,-0.744262695,-0.480102539,8.30078125,-45.0439453,15.5639648
556,2780000,3080000,556,-3399,-6106,-3913,106,-701,234,-0.414916992,-0.745361328,-0.477661133,6.46972656,-42.7856445,14.2822266
557,2784992,3084992,557,-3415,-6212,-3939,83,-678,219,-0.416870117,-0.758300781,-0.480834961,5.06591797,-41.3818359,13.3666992
558,2790000,3090000,558,-3489,-6241,-3984,76,-655,209,-0.42590332,-0.76184082,-0.486328125,4.63867188,-39.9780273,12.7563477
559,2794992,3094992,559,-3503,-6238,-3889,72,-621,180,-0.427612305,-0.761474609,-0.474731445,4.39453125,-37.902832,10.9863281
560,2800000,3100000,560,-3498,-6279,-3916,53,-595,152,-0.427001953,-0.766479492,-0.478027344,3.23486328,-36.315918,9.27734375
561,2804992,3104992,561,-3457,-6236,-3899,48,-571,129,-0.42199707,-0.761230469,-0.475952148,2.9296875,-34.8510742,7.87353516
562,2810000,3110000,562,-3334,-6169,-3775,32,-531,110,-0.406982422,-0.753051758,-0.46081543,1.953125,-32.409668,6.71386719
563,2814992,3114992,563,-3259,-6154,-3853,2,-495,99,-0.397827148,-0.751220703,-0.470336914,0.122070312,-30.2124023,6.04248047
564,2820000,3120000,564,-3203,-6145,-3865,-8,-460,81,-0.390991211,-0.75012207,-0.471801758,-0.48828125,-28.0761719,4.94384766
565,2824992,3124992,565,-3150,-6147,-3834,-21,-414,64,-0.384521484,-0.750366211,-0.468017578,-1.28173828,-25.2685547,3.90625
566,2830000,3130000,566,-3107,-6177,-3895,-36,-365,45,-0.379272461,-0.75402832,-0.475463867,-2.19726562,-22.277832,2.74658203
567,2834992,3134992,567,-3040,-6284,-3894,-42,-308,23,-0.37109375,-0.767089844,-0.475341797,-2.56347656,-18.7988281,1.40380859
568,2840000,3140000,568,-2998,-6419,-3880,-49,-247,8,-0.365966797,-0.783569336,-0.473632812,-2.99072266,-15.0756836,0.48828125
569,2844992,3144992,569,-2989,-6473,-3910,-50,-191,-3,-0.364868164,-0.790161133,-0.477294922,-3.05175781,-11.6577148,-0.183105469
570,2850000,3150000,570,-2979,-6439,-3867,-48,-136,-19,-0.363647461,-0.786010742,-0.472045898,-2.9296875,-8.30078125,-1.15966797
571,2854992,3154992,571,-2931,-6405,-3790,-53,-74,-42,-0.357788086,-0.781860352,-0.462646484,-3.23486328,-4.51660156,-2.56347656
572,2860000,3160000,572,-2862,-6440,-3759,-56,-6,-67,-0.349365234,-0.786132812,-0.458862305,-3.41796875,-0.366210938,-4.08935547
573,2864992,3164992,573,-2799,-6503,-3719,-53,64,-93,-0.341674805,-0.793823242,-0.453979492,-3.23486328,3.90625,-5.67626953
574,2870000,3170000,574,-2747,-6551,-3673,-47,133,-119,-0.335327148,-0.799682617,-0.448364258,-2.86865234,8.11767578,-7.26318359
575,2874992,3174992,575,-2716,-6589,-3629,-39,202,-147,-0.331542969,-0.804321289,-0.442993164,-2.38037109,12.3291016,-8.97216797
576,2880000,3180000,576,-2697,-6617,-3561,-34,267,-179,-0.329223633,-0.807739258,-0.434692383,-2.07519531,16.2963867,-10.925293
577,2884992,3184992,577,-2676,-6650,-3495,-34,332,-215,-0.326660156,-0.811767578,-0.426635742,-2.07519531,20.2636719,-13.1225586
578,2890000,3190000,578,-2656,-6694,-3463,-38,397,-254,-0.32421875,-0.817138672,-0.422729492,-2.31933594,24.230957,-15.5029297
579,2894992,3194992,579,-2639,-6729,-3446,-43,460,-297,-0.322143555,-0.821411133,-0.420654297,-2.62451172,28.0761719,-18.1274414
580,2900000,3200000,580,-2639,-6733,-3440,-52,522,-342,-0.322143555,-0.821899414,-0.419921875,-3.17382812,31.8603516,-20.8740234
581,2904992,3204992,581,-2640,-6716,-3450,-64,583,-392,-0.322265625,-0.819824219,-0.421142578,-3.90625,35.5834961,-23.9257812
582,2910000,3210000,582,-2610,-6700,-3465,-79,642,-448,-0.318603516,-0.817871094,-0.422973633,-4.82177734,39.1845703,-27.34375
583,2914992,3214992,583,-2539,-6710,-3489,-99,702,-508,-0.309936523,-0.819091797,-0.42590332,-6.04248047,42.8466797,-31.0058594
584,2920000,3220000,584,-2427,-6758,-3519,-119,765,-569,-0.296264648,-0.824951172,-0.42956543,-7.26318359,46.6918945,-34.7290039
585,2924992,3224992,585,-2296,-6813,-3546,-134,836,-632,-0.280273438,-0.831665039,-0.432861328,-8.17871094,51.0253906,-38.5742188
586,2930000,3230000,586,-2163,-6860,-3556,-144,914,-695,-0.264038086,-0.837402344,-0.434082031,-8.7890625,55.7861328,-42.4194336
587,2934992,3234992,587,-2051,-6909,-3570,-152,1000,-760,-0.250366211,-0.843383789,-0.435791016,-9.27734375,61.0351562,-46.3867188
588,2940000,3240000,588,-1949,-6953,-3594,-149,1096,-828,-0.237915039,-0.848754883,-0.438720703,-9.09423828,66.8945312,-50.5371094
589,2944992,3244992,589,-1853,-6982,-3593,-136,1197,-898,-0.226196289,-0.852294922,-0.438598633,-8.30078125,73.059082,-54.8095703
590,2950000,3250000,590,-1782,-6978,-3613,-117,1298,-965,-0.217529297,-0.851806641,-0.441040039,-7.14111328,79.2236328,-58.8989258
591,2954992,3254992,591,-1739,-6930,-3657,-91,1392,-1030,-0.212280273,-0.845947266,-0.446411133,-5.55419922,84.9609375,-62.8662109
592,2960000,3260000,592,-1748,-6833,-3704,-60,1471,-1094,-0.213378906,-0.834106445,-0.452148438,-3.66210938,89.7827148,-66.7724609
593,2964992,3264992,593,-1803,-6713,-3715,-31,1537,-1163,-0.220092773,-0.819458008,-0.453491211,-1.89208984,93.8110352,-70.9838867
594,2970000,3270000,594,-1862,-6645,-3667,-18,1596,-1231,-0.227294922,-0.811157227,-0.447631836,-1.09863281,97.4121094,-75.1342773
595,2974992,3274992,595,-1919,-6664,-3706,-21,1655,-1286,-0.23425293,-0.813476562,-0.452392578,-1.28173828,101.013184,-78.4912109
596,2980000,3280000,596,-1974,-6726,-3867,-20,1709,-1325,-0.240966797,-0.821044922,-0.472045898,-1.22070312,104.309082,-80.871582
597,2984992,3284992,597,-2008,-6767,-4012,-12,1750,-1353,-0.245117188,-0.826049805,-0.489746094,-0.732421875,106.811523,-82.5805664
598,2990000,3290000,598,-2006,-6760,-4079,-2,1778,-1376,-0.244873047,-0.825195312,-0.497924805,-0.122070312,108.520508,-83.984375
599,2994992,3294992,599,-1976,-6707,-4124,2,1798,-1404,-0.241210938,-0.818725586,-0.503417969,0.122070312,109.741211,-85.6933594
600,3000000,3300000,600,-1897,-6627,-4145,-1,1822,-1439,-0.231567383,-0.808959961,-0.505981445,-0.0610351562,111.206055,-87.8295898
601,3004992,3304992,601,-1782,-6533,-4122,-11,1858,-1473,-0.217529297,-0.797485352,-0.503173828,-0.671386719,113.40332,-89.9047852
602,3010000,3310000,602,-1676,-6454,-4118,-31,1906,-1503,-0.204589844,-0.787841797,-0.502685547,-1.89208984,116.333008,-91.7358398
603,3014992,3314992,603,-1592,-6446,-4146,-58,1964,-1534,-0.194335938,-0.786865234,-0.506103516,-3.54003906,119.873047,-93.6279297
604,3020000,3320000,604,-1523,-6507,-4185,-90,2030,-1565,-0.185913086,-0.794311523,-0.510864258,-5.49316406,123.901367,-95.5200195
605,3024992,3324992,605,-1452,-6620,-4263,-118,2102,-1599,-0.177246094,-0.808105469,-0.520385742,-7.20214844,128.295898,-97.5952148
606,3030000,3330000,606,-1369,-6766,-4348,-132,2178,-1632,-0.167114258,-0.825927734,-0.530761719,-8.05664062,132.93457,-99.609375
607,3034992,3334992,607,-1304,-6920,-4361,-130,2264,-1660,-0.159179688,-0.844726562,-0.532348633,-7.93457031,138.183594,-101.318359
608,3040000,3340000,608,-1284,-7091,-4294,-122,2364,-1686,-0.156738281,-0.865600586,-0.524169922,-7.44628906,144.287109,-102.905273
609,3044992,3344992,609,-1327,-7272,-4222,-116,2470,-1714,-0.161987305,-0.887695312,-0.515380859,-7.08007812,150.756836,-104.614258
610,3050000,3350000,610,-1375,-7452,-4253,-100,2574,-1742,-0.16784668,-0.909667969,-0.519165039,-6.10351562,157.104492,-106.323242
611,3054992,3354992,611,-1462,-7618,-4341,-64,2658,-1763,-0.178466797,-0.929931641,-0.529907227,-3.90625,162.231445,-107.60498
612,3060000,3360000,612,-1610,-7772,-4369,-19,2725,-1790,-0.196533203,-0.948730469,-0.533325195,-1.15966797,166.320801,-109.25293
613,3064992,3364992,613,-1728,-7922,-4445,21,2795,-1829,-0.2109375,-0.967041016,-0.542602539,1.28173828,170.593262,-111.633301
614,3070000,3370000,614,-1855,-8015,-4668,54,2844,-1861,-0.22644043,-0.978393555,-0.569824219,3.29589844,173.583984,-113.586426
615,3074992,3374992,615,-1996,-7996,-4921,87,2854,-1892,-0.243652344,-0.976074219,-0.600708008,5.31005859,174.194336,-115.478516
616,3080000,3380000,616,-2019,-7930,-5096,132,2841,-1932,-0.246459961,-0.968017578,-0.622070312,8.05664062,173.400879,-117.919922
617,3084992,3384992,617,-1933,-7826,-5148,189,2821,-1960,-0.235961914,-0.955322266,-0.628417969,11.5356445,172.180176,-119.628906
618,3090000,3390000,618,-1827,-7664,-5106,237,2786,-1972,-0.223022461,-0.935546875,-0.623291016,14.465332,170.043945,-120.361328
619,3094992,3394992,619,-1686,-7520,-5096,262,2747,-1990,-0.205810547,-0.91796875,-0.622070312,15.9912109,167.663574,-121.459961
620,3100000,3400000,620,-1486,-7409,-5179,274,2705,-1993,-0.181396484,-0.904418945,-0.632202148,16.7236328,165.100098,-121.643066
621,3104992,3404992,621,-1311,-7301,-5255,282,2649,-1979,-0.16003418,-0.891235352,-0.641479492,17.2119141,161.682129,-120.788574
622,3110000,3410000,622,-1187,-7185,-5223,283,2608,-1977,-0.144897461,-0.877075195,-0.637573242,17.2729492,159.179688,-120.666504
623,3114992,3414992,623,-1002,-7083,-5158,278,2615,-1995,-0.122314453,-0.864624023,-0.629638672,16.9677734,159.606934,-121.765137
624,3120000,3420000,624,-789,-7005,-5157,258,2645,-2010,-0.0963134766,-0.855102539,-0.629516602,15.7470703,161.437988,-122.680664
625,3124992,3424992,625,-637,-6974,-5268,230,2643,-2006,-0.0777587891,-0.851318359,-0.643066406,14.0380859,161.315918,-122.436523
626,3130000,3430000,626,-485,-7015,-5410,218,2608,-1989,-0.0592041016,-0.856323242,-0.660400391,13.3056641,159.179688,-121.398926
627,3134992,3434992,627,-306,-7057,-5457,224,2566,-1959,-0.0373535156,-0.861450195,-0.666137695,13.671875,156.616211,-119.567871
628,3140000,3440000,628,-178,-7076,-5421,236,2519,-1921,-0.0217285156,-0.863769531,-0.661743164,14.4042969,153.747559,-117.248535
629,3144992,3444992,629,-89,-7118,-5377,242,2468,-1874,-0.0108642578,-0.868896484,-0.65637207,14.7705078,150.634766,-114.379883
630,3150000,3450000,630,27,-7121,-5397,278,2416,-1836,0.00329589844,-0.869262695,-0.658813477,16.9677734,147.460938,-112.060547
631,3154992,3454992,631,182,-7040,-5406,361,2365,-1819,0.0222167969,-0.859375,-0.659912109,22.0336914,144.348145,-111.022949
632,3160000,3460000,632,412,-6879,-5279,450,2308,-1802,0.0502929688,-0.83972168,-0.64440918,27.4658203,140.869141,-109.985352
633,3164992,3464992,633,693,-6647,-5100,497,2236,-1759,0.0845947266,-0.811401367,-0.622558594,30.3344727,136.474609,-107.36084
634,3170000,3470000,634,906,-6398,-4942,491,2156,-1699,0.110595703,-0.781005859,-0.603271484,29.9682617,131.591797,-103.69873
635,3174992,3474992,635,1149,-6176,-4810,457,2066,-1642,0.140258789,-0.75390625,-0.587158203,27.8930664,126.098633,-100.219727
636,3180000,3480000,636,1449,-5985,-4719,423,1973,-1586,0.176879883,-0.73059082,-0.576049805,25.8178711,120.422363,-96.8017578
637,3184992,3484992,637,1751,-5768,-4635,375,1859,-1514,0.213745117,-0.704101562,-0.565795898,22.8881836,113.464355,-92.4072266
638,3190000,3490000,638,2046,-5524,-4615,301,1706,-1431,0.249755859,-0.674316406,-0.563354492,18.371582,104.125977,-87.3413086
639,3194992,3494992,639,2394,-5348,-4683,249,1591,-1360,0.292236328,-0.652832031,-0.571655273,15.1977539,97.1069336,-83.0078125
640,3200000,3500000,640,2784,-5258,-4778,237,1528,-1293,0.33984375,-0.641845703,-0.583251953,14.465332,93.2617188,-78.918457
641,3204992,3504992,641,3103,-5217,-4756,217,1465,-1228,0.37878418,-0.63684082,-0.580566406,13.2446289,89.4165039,-74.9511719
642,3210000,3510000,642,3355,-5239,-4670,145,1391,-1162,0.409545898,-0.639526367,-0.570068359,8.85009766,84.8999023,-70.9228516
643,3214992,3514992,643,3543,-5344,-4729,33,1323,-1095,0.432495117,-0.65234375,-0.577270508,2.01416016,80.7495117,-66.8334961
644,3220000,3520000,644,3651,-5531,-4903,-60,1282,-1034,0.445678711,-0.675170898,-0.598510742,-3.66210938,78.2470703,-63.1103516
645,3224992,3524992,645,3679,-5764,-5059,-115,1251,-981,0.44909668,-0.703613281,-0.617553711,-7.01904297,76.3549805,-59.8754883
646,3230000,3530000,646,3684,-5957,-5086,-129,1231,-946,0.449707031,-0.727172852,-0.620849609,-7.87353516,75.1342773,-57.7392578
647,3234992,3534992,647,3729,-6115,-5008,-103,1219,-928,0.455200195,-0.746459961,-0.611328125,-6.28662109,74.4018555,-56.640625
648,3240000,3540000,648,3813,-6287,-4961,-42,1235,-912,0.465454102,-0.767456055,-0.60559082,-2.56347656,75.378418,-55.6640625
649,3244992,3544992,649,3802,-6390,-4929,39,1268,-898,0.464111328,-0.780029297,-0.60168457,2.38037109,77.3925781,-54.8095703
650,3250000,3550000,650,3747,-6452,-4782,99,1265,-901,0.457397461,-0.787597656,-0.583740234,6.04248047,77.2094727,-54.9926758
651,3254992,3554992,651,3733,-6593,-4591,102,1222,-917,0.455688477,-0.80480957,-0.560424805,6.22558594,74.5849609,-55.9692383
652,3260000,3560000,652,3750,-6767,-4559,79,1193,-942,0.457763672,-0.826049805,-0.556518555,4.82177734,72.8149414,-57.4951172
653,3264992,3564992,653,3772,-6937,-4660,114,1207,-967,0.460449219,-0.846801758,-0.568847656,6.95800781,73.6694336,-59.0209961
654,3270000,3570000,654,3710,-7077,-4742,214,1220,-988,0.452880859,-0.863891602,-0.578857422,13.0615234,74.4628906,-60.3027344
655,3274992,3574992,655,3648,-7131,-4724,346,1213,-1018,0.4453125,-0.870483398,-0.576660156,21.1181641,74.0356445,-62.1337891
656,3280000,3580000,656,3631,-7115,-4588,468,1202,-1051,0.443237305,-0.868530273,-0.560058594,28.5644531,73.3642578,-64.1479492
657,3284992,3584992,657,3666,-7041,-4366,542,1196,-1069,0.447509766,-0.85949707,-0.532958984,33.0810547,72.9980469,-65.246582
658,3290000,3590000,658,3779,-6916,-4080,553,1207,-1048,0.461303711,-0.844238281,-0.498046875,33.7524414,73.6694336,-63.9648438
659,3294992,3594992,659,3805,-6694,-3776,527,1231,-983,0.464477539,-0.817138672,-0.4609375,32.1655273,75.1342773,-59.9975586
660,3300000,3600000,660,3847,-6435,-3438,493,1264,-926,0.469604492,-0.785522461,-0.419677734,30.090332,77.1484375,-56.5185547
661,3304992,3604992,661,4066,-6231,-2964,437,1318,-881,0.496337891,-0.760620117,-0.361816406,26.6723633,80.4443359,-53.7719727
662,3310000,3610000,662,4309,-6100,-2497,328,1366,-841,0.526000977,-0.744628906,-0.30480957,20.0195312,83.3740234,-51.3305664
663,3314992,3614992,663,4579,-6123,-2213,177,1380,-817,0.558959961,-0.747436523,-0.270141602,10.8032227,84.2285156,-49.8657227
664,3320000,3620000,664,4917,-6293,-2035,13,1366,-797,0.600219727,-0.768188477,-0.248413086,0.793457031,83.3740234,-48.6450195
665,3324992,3624992,665,5119,-6406,-1986,-148,1344,-776,0.62487793,-0.781982422,-0.242431641,-9.03320312,82.03125,-47.3632812
666,3330000,3630000,666,5220,-6479,-2109,-277,1318,-774,0.637207031,-0.790893555,-0.257446289,-16.9067383,80.4443359,-47.2412109
667,3334992,3634992,667,5277,-6524,-2197,-377,1317,-776,0.644165039,-0.796386719,-0.268188477,-23.0102539,80.3833008,-47.3632812
668,3340000,3640000,668,5220,-6420,-2271,-487,1350,-779,0.637207031,-0.783691406,-0.27722168,-29.7241211,82.3974609,-47.5463867
669,3344992,3644992,669,5229,-6229,-2399,-604,1358,-793,0.638305664,-0.760375977,-0.29284668,-36.8652344,82.8857422,-48.4008789
670,3350000,3650000,670,5316,-5980,-2421,-694,1331,-791,0.648925781,-0.729980469,-0.295532227,-42.3583984,81.237793,-48.2788086
671,3354992,3654992,671,5374,-5689,-2255,-762,1302,-785,0.656005859,-0.694458008,-0.275268555,-46.5087891,79.4677734,-47.9125977
672,3360000,3660000,672,5575,-5457,-2074,-817,1279,-777,0.680541992,-0.666137695,-0.253173828,-49.8657227,78.0639648,-47.4243164
673,3364992,3664992,673,5815,-5271,-1923,-862,1250,-739,0.709838867,-0.643432617,-0.234741211,-52.6123047,76.2939453,-45.1049805
674,3370000,3670000,674,5954,-5137,-1723,-906,1229,-693,0.726806641,-0.627075195,-0.210327148,-55.2978516,75.012207,-42.2973633
675,3374992,3674992,675,6138,-5127,-1526,-961,1226,-666,0.749267578,-0.625854492,-0.186279297,-58.6547852,74.8291016,-40.6494141
676,3380000,3680000,676,6268,-5194,-1346,-1015,1251,-641,0.765136719,-0.634033203,-0.164306641,-61.9506836,76.3549805,-39.1235352
677,3384992,3684992,677,6206,-5303,-1188,-1061,1297,-621,0.757568359,-0.647338867,-0.145019531,-64.7583008,79.1625977,-37.902832
678,3390000,3690000,678,6102,-5383,-1040,-1098,1330,-625,0.744873047,-0.657104492,-0.126953125,-67.0166016,81.1767578,-38.1469727
679,3394992,3694992,679,6079,-5402,-915,-1115,1366,-649,0.74206543,-0.659423828,-0.111694336,-68.0541992,83.3740234,-39.6118164
680,3400000,3700000,680,6075,-5369,-762,-1115,1388,-668,0.741577148,-0.655395508,-0.0930175781,-68.0541992,84.7167969,-40.7714844
681,3404992,3704992,681,6044,-5260,-547,-1121,1388,-680,0.737792969,-0.642089844,-0.0667724609,-68.4204102,84.7167969,-41.5039062
682,3410000,3710000,682,5972,-5134,-324,-1125,1376,-687,0.729003906,-0.626708984,-0.0395507812,-68.6645508,83.984375,-41.9311523
683,3414992,3714992,683,5871,-5040,-133,-1113,1332,-677,0.716674805,-0.615234375,-0.0162353516,-67.9321289,81.2988281,-41.3208008
684,3420000,3720000,684,5708,-4965,92,-1100,1258,-659,0.696777344,-0.606079102,0.0112304688,-67.1386719,76.7822266,-40.222168
685,3424992,3724992,685,5491,-4970,253,-1094,1166,-630,0.670288086,-0.606689453,0.0308837891,-66.7724609,71.1669922,-38.4521484
686,3430000,3730000,686,5298,-5067,314,-1077,1048,-582,0.646728516,-0.618530273,0.0383300781,-65.7348633,63.9648438,-35.5224609
687,3434992,3734992,687,5177,-5153,394,-1067,898,-516,0.631958008,-0.62902832,0.0480957031,-65.1245117,54.8095703,-31.4941406
688,3440000,3740000,688,5032,-5378,315,-1066,717,-454,0.614257812,-0.656494141,0.0384521484,-65.0634766,43.762207,-27.7099609
689,3444992,3744992,689,4814,-5678,47,-1012,526,-399,0.587646484,-0.693115234,0.00573730469,-61.7675781,32.1044922,-24.3530273
690,3450000,3750000,690,4583,-5933,-285,-925,344,-345,0.559448242,-0.724243164,-0.0347900391,-56.4575195,20.9960938,-21.0571289
691,3454992,3754992,691,4467,-6249,-789,-863,183,-313,0.545288086,-0.762817383,-0.0963134766,-52.6733398,11.1694336,-19.1040039
692,3460000,3760000,692,4558,-6462,-1446,-802,69,-292,0.556396484,-0.788818359,-0.176513672,-48.9501953,4.21142578,-17.8222656
693,3464992,3764992,693,4760,-6563,-2017,-738,0,-271,0.581054688,-0.801147461,-0.24621582,-45.0439453,0,-16.5405273
694,3470000,3770000,694,4943,-6729,-2434,-692,-40,-260,0.603393555,-0.821411133,-0.297119141,-42.2363281,-2.44140625,-15.8691406
695,3474992,3774992,695,5118,-7016,-2814,-644,-52,-269,0.624755859,-0.856445312,-0.343505859,-39.3066406,-3.17382812,-16.418457
696,3480000,3780000,696,5347,-7195,-3077,-592,-29,-299,0.652709961,-0.878295898,-0.375610352,-36.1328125,-1.77001953,-18.2495117
697,3484992,3784992,697,5599,-7160,-3390,-569,33,-332,0.68347168,-0.874023438,-0.413818359,-34.7290039,2.01416016,-20.2636719
698,3490000,3790000,698,5755,-6936,-3868,-501,122,-342,0.702514648,-0.846679688,-0.472167969,-30.5786133,7.44628906,-20.8740234
699,3494992,3794992,699,5763,-6508,-4000,-351,211,-329,0.703491211,-0.794433594,-0.48828125,-21.4233398,12.878418,-20.0805664
700,3500000,3800000,700,5745,-6008,-3564,-236,290,-309,0.701293945,-0.733398438,-0.435058594,-14.4042969,17.7001953,-18.8598633
701,3504992,3804992,701,5664,-5620,-3028,-213,374,-277,0.69140625,-0.686035156,-0.369628906,-13.0004883,22.8271484,-16.9067383
702,3510000,3810000,702,5462,-5411,-2719,-219,433,-225,0.666748047,-0.660522461,-0.33190918,-13.3666992,26.4282227,-13.7329102
703,3514992,3814992,703,5231,-5363,-2529,-215,434,-157,0.638549805,-0.654663086,-0.30871582,-13.1225586,26.4892578,-9.58251953
704,3520000,3820000,704,5009,-5451,-2414,-214,388,-84,0.611450195,-0.665405273,-0.294677734,-13.0615234,23.6816406,-5.12695312
705,3524992,3824992,705,4827,-5584,-2421,-221,323,-22,0.589233398,-0.681640625,-0.295532227,-13.4887695,19.7143555,-1.34277344
706,3530000,3830000,706,4718,-5680,-2503,-228,246,23,0.575927734,-0.693359375,-0.305541992,-13.9160156,15.0146484,1.40380859
707,3534992,3834992,707,4759,-5735,-2606,-240,164,55,0.580932617,-0.700073242,-0.318115234,-14.6484375,10.0097656,3.35693359
708,3540000,3840000,708,4931,-5765,-2719,-256,87,83,0.601928711,-0.703735352,-0.33190918,-15.625,5.31005859,5.06591797
709,3544992,3844992,709,5118,-5782,-2848,-265,26,107,0.624755859,-0.705810547,-0.34765625,-16.1743164,1.58691406,6.53076172
710,3550000,3850000,710,5286,-5791,-2975,-257,-12,119,0.645263672,-0.70690918,-0.36315918,-15.6860352,-0.732421875,7.26318359
711,3554992,3854992,711,5411,-5755,-2994,-225,-27,123,0.660522461,-0.702514648,-0.365478516,-13.7329102,-1.64794922,7.50732422
712,3560000,3860000,712,5472,-5684,-2854,-182,-31,129,0.66796875,-0.693847656,-0.348388672,-11.1083984,-1.89208984,7.87353516
713,3564992,3864992,713,5506,-5638,-2630,-134,-36,137,0.672119141,-0.688232422,-0.321044922,-8.17871094,-2.19726562,8.36181641
714,3570000,3870000,714,5546,-5639,-2391,-82,-48,147,0.677001953,-0.688354492,-0.291870117,-5.00488281,-2.9296875,8.97216797
715,3574992,3874992,715,5573,-5675,-2199,-28,-65,157,0.680297852,-0.692749023,-0.268432617,-1.70898438,-3.96728516,9.58251953
716,3580000,3880000,716,5571,-5706,-2068,32,-88,165,0.680053711,-0.696533203,-0.252441406,1.953125,-5.37109375,10.0708008
717,3584992,3884992,717,5551,-5671,-1957,103,-115,170,0.677612305,-0.692260742,-0.238891602,6.28662109,-7.01904297,10.3759766
718,3590000,3890000,718,5533,-5549,-1815,179,-141,174,0.675415039,-0.677368164,-0.221557617,10.925293,-8.60595703,10.6201172
719,3594992,3894992,719,5513,-5368,-1644,244,-168,182,0.672973633,-0.655273438,-0.200683594,14.8925781,-10.2539062,11.1083984
720,3600000,3900000,720,5485,-5160,-1489,289,-198,190,0.669555664,-0.629882812,-0.181762695,17.6391602,-12.0849609,11.5966797
721,3604992,3904992,721,5442,-4932,-1343,323,-231,194,0.664306641,-0.602050781,-0.16394043,19.7143555,-14.0991211,11.8408203
722,3610000,3910000,722,5391,-4667,-1180,344,-267,196,0.658081055,-0.569702148,-0.144042969,20.9960938,-16.2963867,11.9628906
723,3614992,3914992,723,5314,-4348,-1009,342,-305,203,0.648681641,-0.530761719,-0.123168945,20.8740234,-18.6157227,12.3901367
724,3620000,3920000,724,5240,-4039,-872,304,-344,212,0.639648438,-0.493041992,-0.106445312,18.5546875,-20.9960938,12.9394531
725,3624992,3924992,725,5199,-3789,-774,238,-379,229,0.634643555,-0.462524414,-0.0944824219,14.5263672,-23.1323242,13.9770508
726,3630000,3930000,726,5179,-3634,-673,166,-408,256,0.632202148,-0.443603516,-0.0821533203,10.1318359,-24.9023438,15.625
727,3634992,3934992,727,5153,-3576,-540,97,-435,286,0.62902832,-0.436523438,-0.0659179688,5.92041016,-26.550293,17.4560547
728,3640000,3940000,728,5134,-3590,-383,29,-465,320,0.626708984,-0.438232422,-0.0467529297,1.77001953,-28.3813477,19.53125
729,3644992,3944992,729,5141,-3645,-246,-38,-500,362,0.627563477,-0.444946289,-0.0300292969,-2.31933594,-30.5175781,22.0947266
730,3650000,3950000,730,5130,-3685,-168,-90,-532,409,0.626220703,-0.449829102,-0.0205078125,-5.49316406,-32.4707031,24.9633789
731,3654992,3954992,731,5114,-3719,-162,-122,-564,449,0.624267578,-0.453979492,-0.0197753906,-7.44628906,-34.4238281,27.4047852
732,3660000,3960000,732,5137,-3740,-202,-147,-609,485,0.627075195,-0.456542969,-0.0246582031,-8.97216797,-37.1704102,29.6020508
733,3664992,3964992,733,5177,-3725,-275,-169,-659,533,0.631958008,-0.454711914,-0.0335693359,-10.3149414,-40.222168,32.5317383
734,3670000,3970000,734,5157,-3736,-384,-184,-712,581,0.629516602,-0.456054688,-0.046875,-11.2304688,-43.4570312,35.4614258
735,3674992,3974992,735,5257,-3838,-481,-196,-778,624,0.641723633,-0.468505859,-0.0587158203,-11.9628906,-47.4853516,38.0859375
736,3680000,3980000,736,5387,-3987,-612,-206,-842,683,0.657592773,-0.486694336,-0.0747070312,-12.5732422,-51.3916016,41.6870117
737,3684992,3984992,737,5421,-4168,-844,-201,-906,731,0.661743164,-0.508789062,-0.103027344,-12.2680664,-55.2978516,44.6166992
738,3690000,3990000,738,5473,-4360,-1072,-167,-969,758,0.66809082,-0.532226562,-0.130859375,-10.1928711,-59.1430664,46.2646484
739,3694992,3994992,739,5534,-4524,-1222,-121,-1012,772,0.675537109,-0.552246094,-0.149169922,-7.38525391,-61.7675781,47.1191406
740,3700000,4000000,740,5663,-4686,-1354,-84,-1030,789,0.69128418,-0.572021484,-0.165283203,-5.12695312,-62.8662109,48.1567383
741,3704992,4004992,741,5763,-4836,-1573,-49,-1036,814,0.703491211,-0.590332031,-0.192016602,-2.99072266,-63.2324219,49.6826172
742,3710000,4010000,742,5785,-4949,-1850,-9,-1047,840,0.706176758,-0.604125977,-0.225830078,-0.549316406,-63.9038086,51.2695312
743,3714992,4014992,743,5816,-5048,-2144,35,-1077,869,0.709960938,-0.616210938,-0.26171875,2.13623047,-65.7348633,53.0395508
744,3720000,4020000,744,5870,-5159,-2427,81,-1110,901,0.716552734,-0.629760742,-0.296264648,4.94384766,-67.7490234,54.9926758
745,3724992,4024992,745,5852,-5281,-2644,120,-1134,927,0.714355469,-0.64465332,-0.322753906,7.32421875,-69.2138672,56.5795898
746,3730000,4030000,746,5883,-5446,-2753,130,-1168,939,0.718139648,-0.664794922,-0.33605957,7.93457031,-71.2890625,57.3120117
747,3734992,4034992,747,6016,-5636,-2800,113,-1184,956,0.734375,-0.687988281,-0.341796875,6.89697266,-72.265625,58.3496094
748,3740000,4040000,748,6016,-5847,-2898,84,-1163,994,0.734375,-0.713745117,-0.353759766,5.12695312,-70.9838867,60.6689453
749,3744992,4044992,749,5885,-6166,-3004,38,-1136,1047,0.718383789,-0.752685547,-0.366699219,2.31933594,-69.3359375,63.9038086
750,3750000,4050000,750,5687,-6549,-3095,-21,-1111,1089,0.694213867,-0.799438477,-0.377807617,-1.28173828,-67.8100586,66.4672852
751,3754992,4054992,751,5447,-6935,-3136,-82,-1086,1110,0.664916992,-0.846557617,-0.3828125,-5.00488281,-66.2841797,67.7490234
752,3760000,4060000,752,5112,-7277,-3204,-155,-1092,1124,0.624023438,-0.888305664,-0.391113281,-9.46044922,-66.6503906,68.6035156
753,3764992,4064992,753,4712,-7507,-3376,-224,-1166,1127,0.575195312,-0.916381836,-0.412109375,-13.671875,-71.1669922,68.7866211
754,3770000,4070000,754,4393,-7673,-3658,-234,-1278,1123,0.536254883,-0.936645508,-0.446533203,-14.2822266,-78.0029297,68.5424805
755,3774992,4074992,755,4115,-7790,-3951,-191,-1388,1133,0.502319336,-0.950927734,-0.482299805,-11.6577148,-84.7167969,69.152832
756,3780000,4080000,756,3889,-7850,-4107,-139,-1475,1154,0.474731445,-0.958251953,-0.501342773,-8.48388672,-90.0268555,70.4345703
757,3784992,4084992,757,3754,-7873,-4123,-110,-1542,1163,0.458251953,-0.96105957,-0.503295898,-6.71386719,-94.1162109,70.9838867
758,3790000,4090000,758,3687,-7871,-4034,-113,-1609,1161,0.450073242,-0.96081543,-0.492431641,-6.89697266,-98.2055664,70.8618164
759,3794992,4094992,759,3648,-7882,-3869,-128,-1680,1151,0.4453125,-0.962158203,-0.472290039,-7.8125,-102.539062,70.2514648
760,3800000,4100000,760,3600,-7924,-3792,-137,-1765,1138,0.439453125,-0.967285156,-0.462890625,-8.36181641,-107.727051,69.4580078
761,3804992,4104992,761,3462,-7955,-4256,-106,-1897,1124,0.422607422,-0.971069336,-0.51953125,-6.46972656,-115.783691,68.6035156
762,3810000,4110000,762,3309,-7952,-5075,14,-2063,1097,0.403930664,-0.970703125,-0.619506836,0.854492188,-125.915527,66.9555664
763,3814992,4114992,763,3299,-7908,-5474,181,-2184,1074,0.402709961,-0.965332031,-0.668212891,11.0473633,-133.300781,65.5517578
764,3820000,4120000,764,3345,-7780,-5346,284,-2233,1077,0.408325195,-0.949707031,-0.652587891,17.3339844,-136.291504,65.7348633
765,3824992,4124992,765,3296,-7577,-5220,294,-2272,1093,0.40234375,-0.924926758,-0.637207031,17.9443359,-138.671875,66.7114258
766,3830000,4130000,766,3278,-7382,-5426,275,-2335,1092,0.400146484,-0.901123047,-0.662353516,16.784668,-142.51709,66.6503906
767,3834992,4134992,767,3357,-7200,-5739,297,-2386,1095,0.409790039,-0.87890625,-0.700561523,18.1274414,-145.629883,66.8334961
768,3840000,4140000,768,3383,-7024,-5820,338,-2409,1109,0.412963867,-0.857421875,-0.710449219,20.6298828,-147.033691,67.6879883
769,3844992,4144992,769,3362,-6940,-5684,331,-2406,1115,0.410400391,-0.847167969,-0.693847656,20.2026367,-146.850586,68.0541992
770,3850000,4150000,770,3223,-6984,-5540,288,-2378,1127,0.393432617,-0.852539062,-0.676269531,17.578125,-145.141602,68.7866211
771,3854992,4154992,771,2957,-7125,-5433,245,-2343,1134,0.360961914,-0.869750977,-0.663208008,14.9536133,-143.005371,69.2138672
772,3860000,4160000,772,2668,-7362,-5478,221,-2320,1139,0.325683594,-0.898681641,-0.668701172,13.4887695,-141.601562,69.519043
773,3864992,4164992,773,2322,-7605,-5787,285,-2356,1160,0.283447266,-0.928344727,-0.706420898,17.3950195,-143.798828,70.8007812
774,3870000,4170000,774,1930,-7773,-5937,441,-2447,1181,0.235595703,-0.948852539,-0.724731445,26.9165039,-149.353027,72.0825195
775,3874992,4174992,775,1566,-7867,-5802,543,-2498,1198,0.191162109,-0.960327148,-0.708251953,33.1420898,-152.46582,73.1201172
776,3880000,4180000,776,1308,-7875,-5781,554,-2512,1211,0.159667969,-0.961303711,-0.705688477,33.8134766,-153.320312,73.9135742
777,3884992,4184992,777,1170,-7790,-5860,568,-2551,1225,0.142822266,-0.950927734,-0.715332031,34.6679688,-155.700684,74.7680664
778,3890000,4190000,778,1091,-7615,-5877,608,-2590,1250,0.133178711,-0.92956543,-0.717407227,37.109375,-158.081055,76.2939453
779,3894992,4194992,779,1062,-7429,-5840,647,-2614,1273,0.129638672,-0.906860352,-0.712890625,39.4897461,-159.545898,77.6977539
780,3900000,4200000,780,1049,-7246,-5728,666,-2630,1287,0.128051758,-0.884521484,-0.69921875,40.6494141,-160.522461,78.5522461
781,3904992,4204992,781,1020,-7087,-5560,661,-2634,1293,0.124511719,-0.865112305,-0.678710938,40.3442383,-160.766602,78.918457
782,3910000,4210000,782,987,-6971,-5374,646,-2620,1290,0.120483398,-0.850952148,-0.656005859,39.4287109,-159.912109,78.7353516
783,3914992,4214992,783,835,-6873,-5266,617,-2611,1298,0.101928711,-0.838989258,-0.642822266,37.6586914,-159.362793,79.2236328
784,3920000,4220000,784,628,-6803,-5265,591,-2614,1304,0.0766601562,-0.830444336,-0.642700195,36.0717773,-159.545898,79.5898438
785,3924992,4224992,785,556,-6768,-5233,578,-2617,1300,0.0678710938,-0.826171875,-0.638793945,35.2783203,-159.729004,79.3457031
786,3930000,4230000,786,526,-6718,-5126,549,-2631,1311,0.0642089844,-0.820068359,-0.625732422,33.5083008,-160.583496,80.0170898
787,3934992,4234992,787,531,-6688,-5063,500,-2637,1324,0.0648193359,-0.81640625,-0.618041992,30.5175781,-160.949707,80.8105469
788,3940000,4240000,788,614,-6730,-5106,456,-2615,1323,0.0749511719,-0.821533203,-0.623291016,27.8320312,-159.606934,80.7495117
789,3944992,4244992,789,648,-6822,-5230,441,-2574,1316,0.0791015625,-0.832763672,-0.638427734,26.9165039,-157.104492,80.3222656
790,3950000,4250000,790,535,-6967,-5243,463,-2539,1293,0.0653076172,-0.850463867,-0.640014648,28.2592773,-154.968262,78.918457
791,3954992,4254992,791,543,-6941,-5062,453,-2493,1257,0.0662841797,-0.847290039,-0.617919922,27.6489258,-152.160645,76.7211914
792,3960000,4260000,792,654,-6750,-4975,417,-2434,1235,0.0798339844,-0.823974609,-0.607299805,25.4516602,-148.55957,75.378418
793,3964992,4264992,793,524,-6576,-4921,405,-2393,1217,0.0639648438,-0.802734375,-0.600708008,24.7192383,-146.057129,74.2797852
794,3970000,4270000,794,348,-6509,-4778,390,-2330,1173,0.0424804688,-0.794555664,-0.583251953,23.8037109,-142.211914,71.5942383
795,3974992,4274992,795,285,-6549,-4694,377,-2259,1117,0.0347900391,-0.799438477,-0.572998047,23.0102539,-137.878418,68.1762695
796,3980000,4280000,796,256,-6577,-4620,375,-2209,1090,0.03125,-0.802856445,-0.563964844,22.8881836,-134.82666,66.5283203
797,3984992,4284992,797,154,-6608,-4532,371,-2140,1068,0.0187988281,-0.806640625,-0.553222656,22.644043,-130.615234,65.1855469
798,3990000,4290000,798,66,-6703,-4536,362,-2059,1032,0.00805664062,-0.818237305,-0.553710938,22.0947266,-125.671387,62.9882812
799,3994992,4294992,799,13,-6748,-4585,361,-1985,1010,0.00158691406,-0.823730469,-0.559692383,22.0336914,-121.154785,61.6455078
800,4000000,4300000,800,-164,-6666,-4581,372,-1922,995,-0.0200195312,-0.813720703,-0.559204102,22.7050781,-117.30957,60.7299805
801,4004992,4304992,801,-348,-6543,-4475,371,-1877,967,-0.0424804688,-0.798706055,-0.546264648,22.644043,-114.562988,59.0209961
802,4010000,4310000,802,-484,-6429,-4383,362,-1817,933,-0.0590820312,-0.784790039,-0.53503418,22.0947266,-110.900879,56.9458008
803,4014992,4314992,803,-621,-6338,-4386,353,-1779,906,-0.0758056641,-0.773681641,-0.535400391,21.5454102,-108.581543,55.2978516
804,4020000,4320000,804,-733,-6315,-4331,336,-1777,881,-0.0894775391,-0.770874023,-0.528686523,20.5078125,-108.459473,53.7719727
805,4024992,4324992,805,-785,-6423,-4262,323,-1758,854,-0.0958251953,-0.784057617,-0.520263672,19.7143555,-107.299805,52.1240234
806,4030000,4330000,806,-763,-6536,-4285,323,-1727,833,-0.0931396484,-0.797851562,-0.523071289,19.7143555,-105.407715,50.8422852
807,4034992,4334992,807,-755,-6608,-4346,345,-1695,814,-0.0921630859,-0.806640625,-0.530517578,21.0571289,-103.45459,49.6826172
808,4040000,4340000,808,-834,-6624,-4277,373,-1670,790,-0.101806641,-0.80859375,-0.522094727,22.7661133,-101.928711,48.2177734
809,4044992,4344992,809,-939,-6530,-4168,379,-1647,762,-0.114624023,-0.797119141,-0.508789062,23.1323242,-100.524902,46.5087891
810,4050000,4350000,810,-1026,-6429,-4151,385,-1617,714,-0.125244141,-0.784790039,-0.506713867,23.4985352,-98.6938477,43.5791016
811,4054992,4354992,811,-1082,-6370,-3991,379,-1576,670,-0.132080078,-0.777587891,-0.487182617,23.1323242,-96.1914062,40.8935547
812,4060000,4360000,812,-1205,-6313,-3910,330,-1545,655,-0.147094727,-0.770629883,-0.477294922,20.1416016,-94.2993164,39.9780273
813,4064992,4364992,813,-1358,-6241,-3981,300,-1524,626,-0.165771484,-0.76184082,-0.485961914,18.3105469,-93.0175781,38.2080078
814,4070000,4370000,814,-1374,-6156,-3861,275,-1493,585,-0.167724609,-0.751464844,-0.471313477,16.784668,-91.1254883,35.7055664
815,4074992,4374992,815,-1312,-6073,-3822,218,-1450,558,-0.16015625,-0.741333008,-0.466552734,13.3056641,-88.5009766,34.0576172
816,4080000,4380000,816,-1266,-5990,-3862,171,-1416,542,-0.154541016,-0.731201172,-0.471435547,10.4370117,-86.4257812,33.0810547
817,4084992,4384992,817,-1255,-5982,-3772,124,-1390,529,-0.153198242,-0.730224609,-0.460449219,7.56835938,-84.8388672,32.2875977
818,4090000,4390000,818,-1338,-6150,-3788,85,-1347,502,-0.163330078,-0.750732422,-0.462402344,5.18798828,-82.2143555,30.6396484
819,4094992,4394992,819,-1377,-6363,-3832,71,-1294,478,-0.16809082,-0.776733398,-0.467773438,4.33349609,-78.9794922,29.1748047
820,4100000,4400000,820,-1365,-6481,-3840,68,-1234,459,-0.166625977,-0.791137695,-0.46875,4.15039062,-75.3173828,28.0151367
821,4104992,4404992,821,-1409,-6532,-3929,44,-1190,467,-0.17199707,-0.797363281,-0.479614258,2.68554688,-72.6318359,28.503418
822,4110000,4410000,822,-1560,-6481,-3998,19,-1165,501,-0.190429688,-0.791137695,-0.488037109,1.15966797,-71.105957,30.5786133
823,4114992,4414992,823,-1835,-6442,-3978,32,-1133,488,-0.223999023,-0.786376953,-0.485595703,1.953125,-69.152832,29.7851562
824,4120000,4420000,824,-2013,-6552,-3925,45,-1094,439,-0.245727539,-0.799804688,-0.479125977,2.74658203,-66.7724609,26.7944336
825,4124992,4424992,825,-2018,-6660,-3978,71,-1051,404,-0.246337891,-0.812988281,-0.485595703,4.33349609,-64.1479492,24.6582031
826,4130000,4430000,826,-2000,-6616,-3949,88,-1002,387,-0.244140625,-0.807617188,-0.482055664,5.37109375,-61.1572266,23.6206055
827,4134992,4434992,827,-2066,-6516,-3813,74,-941,380,-0.252197266,-0.795410156,-0.465454102,4.51660156,-57.434082,23.1933594
828,4140000,4440000,828,-2311,-6527,-3823,65,-892,378,-0.282104492,-0.79675293,-0.466674805,3.96728516,-54.4433594,23.0712891
829,4144992,4444992,829,-2515,-6651,-3768,60,-857,357,-0.307006836,-0.811889648,-0.459960938,3.66210938,-52.3071289,21.7895508
830,4150000,4450000,830,-2521,-6789,-3717,59,-823,341,-0.307739258,-0.828735352,-0.453735352,3.60107422,-50.2319336,20.8129883
831,4154992,4454992,831,-2567,-6804,-3659,64,-796,347,-0.313354492,-0.830566406,-0.446655273,3.90625,-48.5839844,21.1791992
832,4160000,4460000,832,-2695,-6755,-3592,66,-762,347,-0.328979492,-0.824584961,-0.438476562,4.02832031,-46.5087891,21.1791992
833,4164992,4464992,833,-2818,-6740,-3647,65,-718,325,-0.343994141,-0.822753906,-0.44519043,3.96728516,-43.8232422,19.8364258
834,4170000,4470000,834,-2919,-6765,-3568,65,-682,290,-0.356323242,-0.825805664,-0.435546875,3.96728516,-41.6259766,17.7001953
835,4174992,4474992,835,-2982,-6791,-3516,55,-650,253,-0.364013672,-0.828979492,-0.429199219,3.35693359,-39.6728516,15.4418945
836,4180000,4480000,836,-3059,-6842,-3591,40,-624,224,-0.373413086,-0.835205078,-0.438354492,2.44140625,-38.0859375,13.671875
837,4184992,4484992,837,-3177,-6922,-3629,38,-609,197,-0.387817383,-0.844970703,-0.442993164,2.31933594,-37.1704102,12.0239258
838,4190000,4490000,838,-3209,-6896,-3641,44,-601,163,-0.391723633,-0.841796875,-0.444458008,2.68554688,-36.6821289,9.94873047
839,4194992,4494992,839,-3162,-6838,-3614,54,-591,126,-0.385986328,-0.834716797,-0.441162109,3.29589844,-36.0717773,7.69042969
840,4200000,4500000,840,-3043,-6866,-3570,77,-544,64,-0.371459961,-0.838134766,-0.435791016,4.69970703,-33.203125,3.90625
841,4204992,4504992,841,-2937,-7030,-3599,62,-516,56,-0.358520508,-0.858154297,-0.439331055,3.78417969,-31.4941406,3.41796875
842,4210000,4510000,842,-3045,-7018,-3704,37,-524,75,-0.371704102,-0.856689453,-0.452148438,2.25830078,-31.9824219,4.57763672
843,4214992,4514992,843,-3093,-6796,-3707,49,-511,27,-0.377563477,-0.829589844,-0.452514648,2.99072266,-31.1889648,1.64794922
844,4220000,4520000,844,-2976,-6758,-3641,44,-484,-19,-0.36328125,-0.824951172,-0.444458008,2.68554688,-29.5410156,-1.15966797
845,4224992,4524992,845,-2975,-6732,-3744,27,-466,-42,-0.36315918,-0.821777344,-0.45703125,1.64794922,-28.4423828,-2.56347656
846,4230000,4530000,846,-2951,-6628,-3845,17,-455,-74,-0.360229492,-0.809082031,-0.469360352,1.03759766,-27.7709961,-4.51660156
847,4234992,4534992,847,-2832,-6538,-3863,4,-434,-109,-0.345703125,-0.798095703,-0.471557617,0.244140625,-26.4892578,-6.65283203
848,4240000,4540000,848,-2696,-6420,-3940,-16,-410,-140,-0.329101562,-0.783691406,-0.480957031,-0.9765625,-25.0244141,-8.54492188
849,4244992,4544992,849,-2488,-6283,-3973,-37,-379,-167,-0.303710938,-0.766967773,-0.484985352,-2.25830078,-23.1323242,-10.1928711
850,4250000,4550000,850,-2282,-6199,-3965,-60,-334,-190,-0.278564453,-0.756713867,-0.484008789,-3.66210938,-20.3857422,-11.5966797
851,4254992,4554992,851,-2155,-6236,-3967,-77,-277,-213,-0.263061523,-0.761230469,-0.48425293,-4.69970703,-16.9067383,-13.0004883
852,4260000,4560000,852,-2106,-6311,-3960,-87,-217,-230,-0.257080078,-0.770385742,-0.483398438,-5.31005859,-13.2446289,-14.0380859
853,4264992,4564992,853,-2109,-6372,-3938,-92,-160,-244,-0.257446289,-0.777832031,-0.480712891,-5.61523438,-9.765625,-14.8925781
854,4270000,4570000,854,-2128,-6409,-3861,-95,-109,-256,-0.259765625,-0.782348633,-0.471313477,-5.79833984,-6.65283203,-15.625
855,4274992,4574992,855,-2151,-6436,-3747,-103,-60,-267,-0.262573242,-0.785644531,-0.457397461,-6.28662109,-3.66210938,-16.2963867
856,4280000,4580000,856,-2207,-6482,-3672,-113,-14,-278,-0.26940918,-0.791259766,-0.448242188,-6.89697266,-0.854492188,-16.9677734
857,4284992,4584992,857,-2291,-6526,-3617,-122,24,-289,-0.279663086,-0.796630859,-0.44152832,-7.44628906,1.46484375,-17.6391602
858,4290000,4590000,858,-2374,-6551,-3549,-132,55,-300,-0.289794922,-0.799682617,-0.433227539,-8.05664062,3.35693359,-18.3105469
859,4294992,4594992,859,-2447,-6555,-3521,-142,82,-310,-0.298706055,-0.800170898,-0.42980957,-8.66699219,5.00488281,-18.9208984
860,4300000,4600000,860,-2513,-6544,-3527,-154,105,-318,-0.306762695,-0.798828125,-0.430541992,-9.39941406,6.40869141,-19.4091797
861,4304992,4604992,861,-2572,-6538,-3534,-170,126,-323,-0.313964844,-0.798095703,-0.431396484,-10.3759766,7.69042969,-19.7143555
862,4310000,4610000,862,-2614,-6547,-3579,-189,150,-325,-0.319091797,-0.799194336,-0.436889648,-11.5356445,9.15527344,-19.8364258
863,4314992,4614992,863,-2640,-6564,-3623,-206,177,-329,-0.322265625,-0.801269531,-0.442260742,-12.5732422,10.8032227,-20.0805664
864,4320000,4620000,864,-2618,-6582,-3662,-221,211,-333,-0.319580078,-0.803466797,-0.447021484,-13.4887695,12.878418,-20.324707
865,4324992,4624992,865,-2560,-6587,-3680,-239,252,-340,-0.3125,-0.804077148,-0.44921875,-14.5874023,15.3808594,-20.7519531
866,4330000,4630000,866,-2471,-6596,-3662,-257,304,-350,-0.301635742,-0.805175781,-0.447021484,-15.6860352,18.5546875,-21.3623047
867,4334992,4634992,867,-2332,-6660,-3638,-273,375,-363,-0.284667969,-0.812988281,-0.444091797,-16.6625977,22.8881836,-22.1557617
868,4340000,4640000,868,-2195,-6773,-3599,-283,464,-380,-0.267944336,-0.826782227,-0.439331055,-17.2729492,28.3203125,-23.1933594
869,4344992,4644992,869,-2058,-6874,-3549,-286,566,-395,-0.251220703,-0.839111328,-0.433227539,-17.4560547,34.5458984,-24.1088867
870,4350000,4650000,870,-1929,-6947,-3458,-275,669,-408,-0.235473633,-0.848022461,-0.422119141,-16.784668,40.8325195,-24.9023438
871,4354992,4654992,871,-1867,-7014,-3414,-260,772,-418,-0.227905273,-0.856201172,-0.416748047,-15.8691406,47.1191406,-25.5126953
872,4360000,4660000,872,-1849,-7067,-3441,-238,871,-428,-0.225708008,-0.862670898,-0.420043945,-14.5263672,53.1616211,-26.1230469
873,4364992,4664992,873,-1860,-7124,-3439,-211,963,-436,-0.227050781,-0.869628906,-0.419799805,-12.878418,58.7768555,-26.6113281
874,4370000,4670000,874,-1914,-7236,-3479,-194,1050,-438,-0.233642578,-0.883300781,-0.424682617,-11.8408203,64.0869141,-26.7333984
875,4374992,4674992,875,-1978,-7397,-3584,-181,1118,-437,-0.241455078,-0.902954102,-0.4375,-11.0473633,68.2373047,-26.6723633
876,4380000,4680000,876,-2024,-7575,-3705,-156,1167,-439,-0.247070312,-0.924682617,-0.452270508,-9.52148438,71.2280273,-26.7944336
877,4384992,4684992,877,-2047,-7691,-3764,-115,1201,-447,-0.24987793,-0.938842773,-0.459472656,-7.01904297,73.3032227,-27.2827148
878,4390000,4690000,878,-2057,-7696,-3725,-76,1229,-466,-0.251098633,-0.939453125,-0.454711914,-4.63867188,75.012207,-28.4423828
879,4394992,4694992,879,-2059,-7605,-3698,-48,1264,-493,-0.251342773,-0.928344727,-0.451416016,-2.9296875,77.1484375,-30.090332
880,4400000,4700000,880,-2061,-7457,-3759,-33,1303,-524,-0.251586914,-0.91027832,-0.458862305,-2.01416016,79.5288086,-31.9824219
881,4404992,4704992,881,-2092,-7317,-3857,-29,1331,-562,-0.255371094,-0.893188477,-0.470825195,-1.77001953,81.237793,-34.3017578
882,4410000,4710000,882,-2119,-7216,-3878,-35,1353,-602,-0.258666992,-0.880859375,-0.473388672,-2.13623047,82.5805664,-36.7431641
883,4414992,4714992,883,-2084,-7152,-3852,-53,1376,-644,-0.254394531,-0.873046875,-0.470214844,-3.23486328,83.984375,-39.3066406
884,4420000,4720000,884,-1978,-7144,-3895,-80,1412,-683,-0.241455078,-0.872070312,-0.475463867,-4.8828125,86.1816406,-41.6870117
885,4424992,4724992,885,-1808,-7187,-3989,-98,1453,-714,-0.220703125,-0.877319336,-0.486938477,-5.98144531,88.684082,-43.5791016
886,4430000,4730000,886,-1649,-7225,-4053,-100,1482,-738,-0.201293945,-0.881958008,-0.494750977,-6.10351562,90.4541016,-45.0439453
887,4434992,4734992,887,-1496,-7246,-4034,-98,1514,-760,-0.182617188,-0.884521484,-0.492431641,-5.98144531,92.4072266,-46.3867188
888,4440000,4740000,888,-1341,-7258,-3974,-108,1567,-774,-0.163696289,-0.885986328,-0.485107422,-6.59179688,95.6420898,-47.2412109
889,4444992,4744992,889,-1242,-7273,-4011,-122,1638,-787,-0.151611328,-0.887817383,-0.489624023,-7.44628906,99.9755859,-48.034668
890,4450000,4750000,890,-1179,-7332,-4143,-116,1714,-808,-0.143920898,-0.895019531,-0.505737305,-7.08007812,104.614258,-49.3164062
891,4454992,4754992,891,-1120,-7420,-4220,-90,1780,-819,-0.13671875,-0.905761719,-0.515136719,-5.49316406,108.642578,-49.987793
892,4460000,4760000,892,-1066,-7508,-4190,-63,1840,-822,-0.130126953,-0.916503906,-0.511474609,-3.84521484,112.304688,-50.1708984
893,4464992,4764992,893,-995,-7617,-4225,-48,1896,-815,-0.121459961,-0.92980957,-0.51574707,-2.9296875,115.722656,-49.7436523
894,4470000,4770000,894,-934,-7699,-4350,-23,1949,-803,-0.114013672,-0.939819336,-0.531005859,-1.40380859,118.95752,-49.0112305
895,4474992,4774992,895,-901,-7723,-4441,23,1992,-798,-0.109985352,-0.942749023,-0.542114258,1.40380859,121.582031,-48.7060547
896,4480000,4780000,896,-885,-7704,-4440,61,2023,-796,-0.108032227,-0.940429688,-0.541992188,3.72314453,123.474121,-48.5839844
897,4484992,4784992,897,-876,-7616,-4448,81,2041,-798,-0.106933594,-0.9296875,-0.54296875,4.94384766,124.572754,-48.7060547
898,4490000,4790000,898,-827,-7493,-4514,93,2048,-813,-0.100952148,-0.914672852,-0.551025391,5.67626953,125,-49.621582
899,4494992,4794992,899,-702,-7387,-4560,103,2054,-845,-0.0856933594,-0.901733398,-0.556640625,6.28662109,125.366211,-51.574707
900,4500000,4800000,900,-549,-7301,-4565,111,2063,-892,-0.0670166016,-0.891235352,-0.557250977,6.77490234,125.915527,-54.4433594
901,4504992,4804992,901,-405,-7223,-4601,107,2069,-938,-0.0494384766,-0.881713867,-0.561645508,6.53076172,126.281738,-57.2509766
902,4510000,4810000,902,-273,-7115,-4662,90,2066,-978,-0.0333251953,-0.868530273,-0.569091797,5.49316406,126.098633,-59.6923828
903,4514992,4814992,903,-154,-6967,-4741,54,2065,-1012,-0.0187988281,-0.850463867,-0.578735352,3.29589844,126.037598,-61.7675781
904,4520000,4820000,904,-2,-6803,-4916,24,2064,-1053,-0.000244140625,-0.830444336,-0.600097656,1.46484375,125.976562,-64.2700195
905,4524992,4824992,905,228,-6649,-4947,20,2085,-1112,0.0278320312,-0.811645508,-0.603881836,1.22070312,127.258301,-67.8710938
906,4530000,4830000,906,472,-6549,-4791,-4,2145,-1162,0.0576171875,-0.799438477,-0.584838867,-0.244140625,130.92041,-70.9228516
907,4534992,4834992,907,614,-6507,-4733,-62,2197,-1180,0.0749511719,-0.794311523,-0.577758789,-3.78417969,134.094238,-72.0214844
908,4540000,4840000,908,636,-6516,-4810,-114,2224,-1174,0.0776367188,-0.795410156,-0.587158203,-6.95800781,135.742188,-71.6552734
909,4544992,4844992,909,646,-6576,-4765,-144,2252,-1166,0.0788574219,-0.802734375,-0.581665039,-8.7890625,137.451172,-71.1669922
910,4550000,4850000,910,690,-6705,-4560,-153,2307,-1164,0.0842285156,-0.818481445,-0.556640625,-9.33837891,140.808105,-71.0449219
911,4554992,4854992,911,719,-6881,-4483,-147,2378,-1166,0.0877685547,-0.83996582,-0.547241211,-8.97216797,145.141602,-71.1669922
912,4560000,4860000,912,720,-7057,-4603,-139,2410,-1159,0.087890625,-0.861450195,-0.561889648,-8.48388672,147.094727,-70.7397461
913,4564992,4864992,913,694,-7177,-4778,-133,2380,-1131,0.0847167969,-0.876098633,-0.583251953,-8.11767578,145.263672,-69.0307617
914,4570000,4870000,914,699,-7163,-4830,-124,2325,-1090,0.0853271484,-0.874389648,-0.589599609,-7.56835938,141.906738,-66.5283203
915,4574992,4874992,915,791,-7048,-4694,-111,2272,-1057,0.0965576172,-0.860351562,-0.572998047,-6.77490234,138.671875,-64.5141602
916,4580000,4880000,916,965,-6897,-4470,-86,2226,-1035,0.117797852,-0.841918945,-0.545654297,-5.24902344,135.864258,-63.1713867
917,4584992,4884992,917,1187,-6713,-4240,-65,2162,-1013,0.144897461,-0.819458008,-0.517578125,-3.96728516,131.958008,-61.8286133
918,4590000,4890000,918,1433,-6498,-4184,-93,2060,-994,0.174926758,-0.793212891,-0.510742188,-5.67626953,125.732422,-60.6689453
919,4594992,4894992,919,1650,-6328,-4340,-138,1966,-987,0.201416016,-0.772460938,-0.529785156,-8.42285156,119.995117,-60.2416992
920,4600000,4900000,920,1903,-6232,-4390,-165,1891,-987,0.232299805,-0.760742188,-0.535888672,-10.0708008,115.41748,-60.2416992
921,4604992,4904992,921,2162,-6209,-4280,-208,1824,-974,0.263916016,-0.75793457,-0.522460938,-12.6953125,111.328125,-59.4482422
922,4610000,4910000,922,2402,-6217,-4109,-280,1761,-957,0.293212891,-0.758911133,-0.501586914,-17.0898438,107.48291,-58.4106445
923,4614992,4914992,923,2674,-6269,-4066,-381,1691,-936,0.326416016,-0.765258789,-0.496337891,-23.2543945,103.210449,-57.1289062
924,4620000,4920000,924,2857,-6369,-4246,-459,1628,-914,0.348754883,-0.77746582,-0.518310547,-28.0151367,99.3652344,-55.7861328
925,4624992,4924992,925,3021,-6466,-4432,-427,1632,-918,0.368774414,-0.789306641,-0.541015625,-26.0620117,99.609375,-56.0302734
926,4630000,4930000,926,3242,-6548,-4519,-301,1705,-946,0.395751953,-0.799316406,-0.551635742,-18.371582,104.064941,-57.7392578
927,4634992,4934992,927,3407,-6599,-4506,-165,1781,-968,0.415893555,-0.805541992,-0.550048828,-10.0708008,108.703613,-59.0820312
928,4640000,4940000,928,3438,-6626,-4417,-69,1820,-966,0.419677734,-0.808837891,-0.53918457,-4.21142578,111.083984,-58.9599609
929,4644992,4944992,929,3365,-6688,-4322,-13,1837,-938,0.410766602,-0.81640625,-0.527587891,-0.793457031,112.121582,-57.2509766
930,4650000,4950000,930,3207,-6786,-4200,11,1839,-890,0.391479492,-0.828369141,-0.512695312,0.671386719,112.243652,-54.3212891
931,4654992,4954992,931,3048,-6884,-4035,22,1827,-837,0.372070312,-0.840332031,-0.492553711,1.34277344,111.51123,-51.0864258
932,4660000,4960000,932,2949,-6992,-3893,50,1788,-794,0.359985352,-0.853515625,-0.475219727,3.05175781,109.130859,-48.4619141
933,4664992,4964992,933,2886,-7075,-3850,106,1703,-754,0.352294922,-0.863647461,-0.469970703,6.46972656,103.942871,-46.0205078
934,4670000,4970000,934,2877,-7111,-3978,204,1597,-731,0.351196289,-0.868041992,-0.485595703,12.4511719,97.4731445,-44.6166992
935,4674992,4974992,935,2900,-7122,-4040,332,1486,-731,0.354003906,-0.869384766,-0.493164062,20.2636719,90.6982422,-44.6166992
936,4680000,4980000,936,2915,-7025,-3813,429,1373,-738,0.355834961,-0.857543945,-0.465454102,26.184082,83.8012695,-45.0439453
937,4684992,4984992,937,2974,-6805,-3528,478,1276,-759,0.363037109,-0.830688477,-0.430664062,29.1748047,77.8808594,-46.3256836
938,4690000,4990000,938,3077,-6506,-3355,496,1194,-800,0.375610352,-0.794189453,-0.409545898,30.2734375,72.8759766,-48.828125
939,4694992,4994992,939,3212,-6149,-3264,489,1114,-847,0.392089844,-0.750610352,-0.3984375,29.8461914,67.9931641,-51.6967773
940,4700000,5000000,940,3366,-5859,-3276,458,1040,-881,0.410888672,-0.715209961,-0.399902344,27.9541016,63.4765625,-53.7719727
941,4704992,5004992,941,3519,-5668,-3313,390,960,-894,0.42956543,-0.691894531,-0.404418945,23.8037109,58.59375,-54.5654297
942,4710000,5010000,942,3674,-5611,-3311,285,876,-896,0.448486328,-0.684936523,-0.404174805,17.3950195,53.4667969,-54.6875
943,4714992,5014992,943,3753,-5670,-3365,148,799,-892,0.458129883,-0.692138672,-0.410766602,9.03320312,48.7670898,-54.4433594
944,4720000,5020000,944,3837,-5854,-3512,10,742,-880,0.468383789,-0.714599609,-0.428710938,0.610351562,45.2880859,-53.7109375
945,4724992,5024992,945,3914,-6205,-3624,-99,707,-843,0.477783203,-0.757446289,-0.442382812,-6.04248047,43.1518555,-51.4526367
